x,y,z,delta_z,vx,vy,vz,delta_vz,ax,ay,az,heading,delta_heading,dist_bottom,eph,epv,evh,evv,z_reset_counter,vz_reset_counter,heading_reset_counter,dist_bottom_valid
0.2639273056845817,0.3605341664012308,0.9584327543756238,0.0,0.017344551041034217,0.16248489539430477,0.29170677921723415,9.71445146547012e-17,0.7373446852532421,0.4070729484955742,0.11128125973924113,0.6333668696224981,0.924333057004751,0.03960468600495672,0.18674777772378448,0.3746201002706364,0.5163683372853303,0.5212611344279683,0.0,4.440892098500626e-16,0.07566694299525523,0.9220282241856961
0.2586875826240909,0.3592399585569168,0.9577943850898489,0.0,0.021503887679084843,0.17219364448466568,0.2891226056943171,0.0,0.8519256916561334,0.8071635816770896,0.1191817004791434,0.6331139132670041,0.924333057004751,0.04024436046277675,0.24356519351720607,0.41054795562428126,0.5483882049254278,0.5318987190330686,0.0,4.440892098500626e-16,0.07566694299525523,0.9220282241856961
0.23658551731315652,0.3527797003066796,0.9546573732335176,0.0,0.03506662320324716,0.21255120059845628,0.2778937476780232,9.71445146547012e-17,0.9055364735950393,1.0000000000000002,0.13594978754697878,0.6477394947749886,0.92433266092508,0.04338779661857802,0.29015876212326397,0.43197736167492096,0.5759345985005062,0.5465487019771764,0.0,6.661338147750939e-16,0.07566733907491408,0.9220282324707874
0.20661949746803704,0.34409749486341334,0.9499814345587911,0.0,0.05792140759398973,0.25661237914660057,0.262268713896716,9.71445146547012e-17,0.7074318007026641,0.43792497483511894,0.1460087037283967,0.6728708564996655,0.924333057004751,0.04807331432083161,0.24212970596228445,0.3884334282132187,0.548756885450171,0.5493286303521758,0.0,4.440892098500626e-16,0.07566694299525523,0.9220282241856961
0.18011081588975775,0.3378542581351124,0.9456042754568249,0.0,0.09289547840530954,0.2769398797446442,0.24809100828250685,9.71445146547012e-17,0.5987667007683772,0.3643261541735647,0.1530772603115064,0.6850053854568605,0.9243349688420959,0.052459434370444785,0.24662893272283526,0.3846210678847015,0.5455548354748858,0.559732988621306,0.0,6.661338147750939e-16,0.07566503115790368,0.9220281841943796
0.1546593293053221,0.33237248200694913,0.9411375087037455,0.0,0.13984154495029488,0.29237358845924094,0.23413937024833292,9.71445146547012e-17,0.6107874516673776,0.5887048190718679,0.16137642857872447,0.6951263818856237,0.924333057004751,0.05693534361637214,0.294228968942873,0.4029216574833079,0.5616197393134037,0.5766348609942371,0.0,4.440892098500626e-16,0.075666942995257,0.9220282241856963
0.1292888151568538,0.32649672102173655,0.9363771761682325,0.0,0.1929535407951285,0.32442227897182424,0.22012849717478522,9.71445146547012e-17,0.7002856516486541,0.642917533620409,0.17238575662474329,0.7151605664413543,0.9243252261820849,0.061705424320699344,0.3357748840171215,0.4059826845753278,0.5715707438615993,0.5922726334001833,0.0,4.440892098500626e-16,0.07567477381791932,0.9220283879888077
0.10507676867671661,0.32355092307793365,0.9314855150762082,0.0,0.24363502530786643,0.3683997866102481,0.20750766565953138,9.71445146547012e-17,0.7738760830947405,0.5472483976005964,0.182205983232831,0.7287693045859198,0.924333057004751,0.06660710432523964,0.3431666520032035,0.4174333389230789,0.5626718802261195,0.6030312894844831,0.0,4.440892098500626e-16,0.07566694299525523,0.9220282241856961
0.08335170452108137,0.32567111352438916,0.926809720490102,0.0,0.2850192612387977,0.4110153362084988,0.19739251281724612,9.71445146547012e-17,0.7756108790312368,0.4424464136401718,0.1864874179596603,0.7238120206564167,0.9243582573278586,0.07129247387821105,0.3139926855515771,0.45560019084368975,0.5359817937164841,0.6085274414066992,0.0,6.661338147750939e-16,0.07564174267213453,0.9220276970518926
0.06091104643333234,0.3307105057730345,0.9219778882637032,0.0,0.32243978133076967,0.4466037591589517,0.1874805336151658,9.71445146547012e-17,0.7771209768259437,0.34769522954500653,0.18213059387292094,0.7159530309616962,0.924333057004751,0.07613419960842766,0.27704487184860227,0.4890032805998068,0.5064606770239308,0.612525925458792,0.0,4.440892098500626e-16,0.07566694299525523,0.9220282241856961
0.03392935583108986,0.33734204105875,0.9162556491506963,0.0,0.3645823220989808,0.47140001703797135,0.1746901179355585,9.71445146547012e-17,0.8596945631416603,0.26741368541570487,0.16490180356408163,0.7212680134903904,0.924224425477123,0.081868155817157,0.26059521424507004,0.48289415141972114,0.48912217577850203,0.6190709175962192,0.0,6.661338147750939e-16,0.07577557452287476,0.9220304965117326
0.015600297550063313,0.3425575059273952,0.9115436148721129,0.0,0.40535302491725317,0.4882646404546673,0.16328089432588477,9.71445146547012e-17,0.945068430675658,0.25992151790582657,0.15337309095914514,0.7277660655056968,0.924333057004751,0.08658983893597948,0.2688753693763868,0.467220557959795,0.4903486912847521,0.6271553140103245,0.0,4.440892098500626e-16,0.07566694299525523,0.9220282241856961
0.003250913797064714,0.3484323333496917,0.9059675361726273,0.0,0.4657972119420658,0.5151199176349327,0.1493131212008913,9.71445146547012e-17,0.9833588198109915,0.32882235837247875,0.15437320146367492,0.7252066543839293,0.9247471355860792,0.09217733584561974,0.2937497967274698,0.47060740496894127,0.5045074082761518,0.639826419777636,0.0,4.440892098500626e-16,0.07525286441392076,0.9220195625976462
0.0,0.35572638504917853,0.9004435232400891,0.0,0.5241514630301052,0.5379086446284633,0.1362151430419385,9.71445146547012e-17,0.900820554317121,0.3639026309733623,0.15645332894266759,0.7200821073337185,0.924333057004751,0.09771266087760358,0.3181729681645642,0.48234981320119275,0.5177065110418022,0.6521892512887781,0.0,4.440892098500626e-16,0.07566694299525523,0.9220282241856961
0.0032397967927093596,0.3661896202436048,0.8942317101212618,0.0,0.5739398521258146,0.5488863631301615,0.1233488732956739,9.71445146547012e-17,0.6783209695080503,0.28114787003138236,0.1454467531919884,0.7227188761992211,0.9227553122513146,0.1039371953823943,0.32819589520457804,0.4816661872206751,0.5170843308493183,0.661935289095009,0.0,6.661338147750939e-16,0.07724468774868853,0.9220612270400291
0.008596675237888485,0.37343401189954384,0.8881319392286404,0.0,0.6148411103008281,0.5585877465344364,0.1120296611234462,9.71445146547012e-17,0.5171470582409945,0.23468412048517304,0.13255706176973273,0.7350163452707639,0.924333057004751,0.1100494579306036,0.31068822415368125,0.4613496981494549,0.498007615947869,0.665867804792998,0.0,6.661338147750939e-16,0.07566694299525523,0.9220282241856961
0.012483851678192992,0.3743562401494456,0.8823757975685994,0.0,0.6539477087808494,0.5775679457523931,0.10185542839855272,9.71445146547012e-17,0.5508108392381353,0.3319908934207711,0.12935221341036762,0.7521692235982655,0.9295459931381344,0.1158173865010698,0.27082795953200467,0.42757757654488415,0.4676401273363249,0.6651557937831098,0.0,6.661338147750939e-16,0.0704540068618682,0.921919181343701
0.015649400104227384,0.37563903545019495,0.8760872195559641,0.0,0.6963290285589003,0.6016926948706931,0.09042074115267723,9.71445146547012e-17,0.7124273773197493,0.43808596950854356,0.135818741114382,0.7595795522361879,0.924333057004751,0.12211884119982776,0.24628168043759047,0.40400914327744175,0.4515445270490046,0.6680875627782799,0.0,4.440892098500626e-16,0.07566694299525523,0.9220282241856961
0.018660136353441437,0.382973975100826,0.8701265504466535,0.0,0.7331372861446367,0.6179824587875612,0.07907367160450385,0.0,0.8561480937083946,0.39150638923661457,0.1534175982940204,0.7475276480340449,0.9048834772706317,0.1280917157901353,0.2727672523463536,0.4147416764156411,0.4728736688190569,0.6803826381578588,0.0,4.440892098500626e-16,0.09511652272936733,0.9224350654351477
0.022897338462054606,0.3899694792337598,0.8641410905422391,0.0,0.7636209807911389,0.6248151158012755,0.06971837012712045,9.71445146547012e-17,0.8524585370022448,0.31931035059136437,0.20177190350805746,0.7565823737803665,0.924333057004751,0.13408943192908548,0.2922682215438286,0.42113096434291464,0.48768851397025426,0.6912687155141599,0.0,4.440892098500626e-16,0.07566694299525523,0.9220282241856961
0.030261216109041977,0.39021353003302195,0.8576160176647124,0.0,0.7871609385755103,0.6229767888314802,0.0651853590692405,9.71445146547012e-17,0.612711573945676,0.3555955677288974,0.3013703477260135,0.8054047200476759,1.0,0.1406278657341395,0.2523766908615954,0.3877604800420187,0.4546525196210771,0.6910731951236118,0.0,4.440892098500626e-16,0.0,0.9204454427553914
0.040116133156000766,0.3901164523230106,0.8518218813229789,0.0,0.8016775255227019,0.6233015570174305,0.06768157782465789,9.71445146547012e-17,0.4148547674323584,0.3926881359914028,0.3951286221407855,0.7626995290089607,0.924333057004751,0.14643386680857112,0.22964622518368039,0.36464337356822085,0.4243548773558725,0.692450374423708,0.0,4.440892098500626e-16,0.07566694299525523,0.9220282241856961
0.057918875858852636,0.39780460411526264,0.8440703824945516,0.0,0.8168298646608025,0.6359752612685609,0.07973028292846873,9.71445146547012e-17,0.44059633934055614,0.3183696815491991,0.4726215545692334,0.4862606048465432,0.4593356770173826,0.15420123935376645,0.29110437330682437,0.39235558952689686,0.42750213335693577,0.7106364757217953,0.0,2.220446049250313e-16,0.5406643229826322,0.9289755826322236
0.07340838291434743,0.40627073681491543,0.8376742363458465,0.0,0.8305894516267112,0.6449162294078659,0.09119585720334977,9.71445146547012e-17,0.5908795823200486,0.24269834563684173,0.47190518564387146,0.2885644601534878,0.07251619711520951,0.16061048147676316,0.33471823571868065,0.41983067182387757,0.39818143480111345,0.7256547243402629,0.0,4.440892098500626e-16,0.9274838028847876,0.9220282241856961
0.08527551186946175,0.4112782690695841,0.8319908254569356,0.0,0.8475838908370363,0.6401040506686699,0.0972065220739261,9.71445146547012e-17,0.6988013161109461,0.25977340463921794,0.4042958280211152,0.3341185515098344,0.0,0.16630552503210166,0.3104805461051683,0.41362751064963277,0.2963970896894432,0.7292858133716171,0.0,4.440892098500626e-16,1.0000000000000009,0.9003269949142434
0.09597530555776562,0.41673322874174645,0.8264397336124263,0.0,0.8673851264039902,0.6263495972823827,0.09747755420443682,9.71445146547012e-17,0.7447586022272129,0.3537084144474902,0.3170924099920782,0.51085967051828,0.07251619711520951,0.17186797876670537,0.37471898578732876,0.43820414387125695,0.23502226384790603,0.7462425096003704,0.0,4.440892098500626e-16,0.9274838028847876,0.9220282241856961
0.10864603958027375,0.4268098934321779,0.8204810250469814,0.0,0.8901217670366064,0.6104474803436893,0.09307059558768382,9.71445146547012e-17,0.7386831349624078,0.4681589831231254,0.2562582467285657,0.6786398053892402,0.09102870748996283,0.1778388878199989,0.6470172740288458,0.5466290970590961,0.30671945650602606,0.7957157141135491,0.0,6.661338147750939e-16,0.9089712925100457,1.0
0.12351278015485756,0.4384840497578214,0.8148085666320624,0.0,0.9177115864760566,0.5971413609090938,0.08750285135810537,9.71445146547012e-17,0.7080481405293696,0.4671096415035023,0.2309479056799284,0.7938265172681591,0.07251619711522422,0.18352296252467645,0.8918101625061343,0.6509222716762437,0.38538685510912973,0.840555956285673,0.0,4.440892098500626e-16,0.9274838028847876,0.9220282241856963
0.14503136616338852,0.4521481535862303,0.8083721563406138,0.0,0.9581655780068903,0.5869259281723874,0.08238863388480766,0.0,0.6690517055663913,0.26430110134512075,0.23486795918467573,0.8753784920006966,0.06715846418912519,0.18997255287792944,0.9278207801971838,0.6784872796603096,0.3521662517295292,0.8539102402480925,0.0,2.220446049250313e-16,0.9328415358108746,0.47478641068261707
0.16555957161179002,0.46617475137476905,0.8026743332170901,0.0,0.9838534306708815,0.5859469270081282,0.07893947135423052,9.71445146547012e-17,0.6376994897691324,0.1962633707389817,0.25596032033716903,0.9223455185498892,0.07251619711522422,0.19568204283069282,0.8626052141303102,0.6322378412308609,0.2758621482676329,0.8495807047761517,0.0,4.440892098500626e-16,0.9274838028847867,0.080353179867607
0.18784710253447612,0.48541845226408176,0.7961600374125923,0.0,0.9857318801036381,0.5960693543968187,0.07552079730810601,9.71445146547012e-17,0.6116616593234804,0.5183583387957258,0.28241270340034624,0.9698105470495673,0.07387986416610998,0.2022096771221281,0.8627900268280673,0.5528044735473863,0.23520866228427728,0.8544727332006072,0.0,4.440892098500626e-16,0.9261201358338953,0.0024458222907004223
0.20830112646727372,0.5006837056089296,0.7906803486263118,0.0,0.9827231979383977,0.6106647005333193,0.07288512741156494,9.71445146547012e-17,0.6083560766024357,0.8507208352868131,0.2960496637208514,0.9968592919686197,0.07251619711520951,0.20770058712937542,0.8894168481766549,0.5209911714469087,0.2207052420046276,0.8635114280963432,0.0,4.440892098500626e-16,0.9274838028847876,0.080353179867607
0.2386076660627099,0.5146388269022346,0.7838564237657926,0.0,0.9939936306388044,0.6317411915065329,0.06979285559671711,9.71445146547012e-17,0.6383196316550634,0.9497639321092364,0.2933275759387269,1.0,0.07210345299145549,0.2145384889878083,0.8830545035620911,0.5739763186806641,0.18959171192049062,0.872084585171331,0.0,6.661338147750939e-16,0.9278965470085465,0.10393357217547053
0.2645654363659942,0.5263355812986175,0.777695385930568,0.0,1.0,0.6490140743337052,0.067045371032874,9.71445146547012e-17,0.6808804977833056,0.7209739316747987,0.2819433121701026,0.980763444646878,0.07251619711520951,0.22071214871204656,0.8545225590727021,0.6352822802951117,0.15837451703210625,0.8768557459936117,0.0,6.661338147750939e-16,0.9274838028847876,0.08035317986760701
0.2836610525672337,0.5399257943192338,0.7717723209285767,0.0,0.9883297828861479,0.6611570082386448,0.06444272603698442,0.0,0.7179320705919015,0.34726005392150816,0.274829051213604,0.9536563621906193,0.07261092621387005,0.22664734887576854,0.8320229818821367,0.6410450833312247,0.13907450072797545,0.8802187234499064,0.0,4.440892098500626e-16,0.9273890737861379,0.07494123289962383
0.2998063597418266,0.5523035571537699,0.7658861180882784,0.0,0.9788211135167744,0.669136238352987,0.06239670289150767,0.0,0.7477330056326181,0.12907753507734865,0.27917276549674097,0.9238755228855213,0.07251619711520951,0.23254560800760646,0.8199172046365781,0.6171094545883378,0.1329211873151479,0.8838752467435809,0.0,4.440892098500626e-16,0.9274838028847876,0.08035317986760701
0.3198128037969245,0.5609816867379163,0.7587845631238233,0.0,0.9913264377136519,0.6736502792757242,0.061224912083486904,9.71445146547012e-17,0.7600826134299401,0.3598189652740189,0.302574714816976,0.8892273902121977,0.0724884806046639,0.23966169999452178,0.8134883352780573,0.5937298704102751,0.139345385783205,0.8892271599336343,0.0,4.440892098500626e-16,0.9275115193953383,0.08193664563873375
0.336584448978069,0.565532392409961,0.7529345536632577,0.0,0.9951905299530608,0.6735980657852227,0.060656777928754346,9.71445146547012e-17,0.708055673806405,0.5850275313440905,0.31440460870505876,0.8651063745212131,0.07251619711520951,0.24552368296278415,0.7859406588850621,0.5990052481928778,0.13483171422932916,0.8904297264447631,0.0,6.661338147750939e-16,0.9274838028847867,0.08035317986760701
0.3556792917772434,0.5717880270493904,0.7459859909125593,0.0,0.9659857836334307,0.6695070370224673,0.059519540454138764,9.71445146547012e-17,0.5630638015388512,0.483525239335395,0.3008731965054538,0.8415853756568055,0.07252335391714104,0.25248647258267987,0.709904805358093,0.631831383502174,0.10467846392916069,0.8853719967212861,0.0,4.440892098500626e-16,0.9274766460828694,0.07994430621641495
0.3706363982836494,0.5771491863967875,0.7399276310066923,0.0,0.9317891457330596,0.6596303417803508,0.05809485056656527,9.71445146547012e-17,0.45585865574284046,0.3055770455866317,0.28577205215855217,0.8171594241144042,0.07251619711520951,0.25855723948891635,0.6454106861224496,0.6345231248765231,0.08790407349578011,0.8800492886914704,0.0,4.440892098500626e-16,0.9274838028847876,0.08035317986760701
0.38401514874244663,0.5811888655571426,0.7334805507821738,0.0,0.9088956651026161,0.6395256227614524,0.0563013837032178,9.71445146547012e-17,0.43901104307893535,0.3043382008473269,0.28760682427611806,0.7803901012214878,0.07251414322698008,0.2650175228578206,0.6182043447569718,0.5676013418233872,0.11078981329441184,0.8784059082929971,0.0,4.440892098500626e-16,0.9274858567730311,0.08047052009785435
0.3958383072223082,0.582797562029839,0.7272157330506371,0.0,0.8938212865249507,0.6140914606951999,0.054905982332237535,9.71445146547012e-17,0.41782947449246366,0.4697170573104012,0.2964695300160088,0.7457277385316026,0.07251619711520951,0.2712951672016671,0.6147760956907522,0.48517015375514916,0.15268806911013488,0.8800235740062892,0.0,4.440892098500626e-16,0.9274838028847876,0.08035317986760701
0.40754087434489034,0.5824221902657237,0.7212986721259215,0.0,0.876639334329701,0.5904907017092264,0.0542934586541336,9.71445146547012e-17,0.31099533327469037,0.658537438112717,0.2972027882226899,0.7257978615977523,0.07251672855266178,0.277224338557471,0.6061001326768309,0.45154242934775013,0.18283636746262832,0.8825692994995116,0.0,4.440892098500626e-16,0.9274832714473469,0.08032281843395774
0.42132437394910754,0.5817805170405729,0.7147872321751831,0.0,0.8610394538166632,0.571501536951768,0.053592329441063846,9.71445146547012e-17,0.25522044189945065,0.7107370276836592,0.29300388737463173,0.7153187319969687,0.07251619711522422,0.2837491075463727,0.592280110093391,0.4695501401481934,0.2059877741800884,0.8867398073723187,0.0,4.440892098500626e-16,0.9274838028847876,0.08035317986760701
0.43735046142193584,0.5814851138916383,0.7077606623654614,0.0,0.855799335495091,0.5613271255452862,0.05181938728435931,0.0,0.41467337758418726,0.47082178777238787,0.2891468993383497,0.7106798894090307,0.07251604893615421,0.2907900696040565,0.5806169847540303,0.5340932241415608,0.22830511053931168,0.8931407571761909,0.0,4.440892098500626e-16,0.9274839510638424,0.08036164545211978
0.45425889493827326,0.5757978053982433,0.7010850535720834,0.0,0.8530887029618384,0.5452224772252033,0.04918433660310273,9.71445146547012e-17,0.5614339344249124,0.2680787040375026,0.2829961275613876,0.7081145186371618,0.07251619711520951,0.2974793536570285,0.5713365220321531,0.5855593375752939,0.25531449742375667,0.8988754797656942,0.0,4.440892098500626e-16,0.9274838028847876,0.08035317986760701
0.47088942379698767,0.5630631413523434,0.6951611640889863,0.0,0.8452615325832317,0.5150917208730297,0.04642370588246769,9.71445146547012e-17,0.523043088876038,0.33713057537423013,0.27446385342999563,0.703871167331477,0.07251623399310608,0.3034153744721267,0.5624981061121392,0.5893438338615162,0.2877018935015849,0.9021423110770428,0.0,6.661338147750939e-16,0.9274837660069029,0.08035107300540353
0.49071745855489807,0.5471746101240827,0.6884197557688239,0.0,0.8338568233605399,0.47596653378812015,0.04400011421339578,9.71445146547012e-17,0.41320758591108575,0.5550098375335146,0.27566268731565485,0.6908400255382476,0.07251619711520951,0.31017058579530504,0.5524138065031341,0.5701130437437669,0.32548165990464906,0.9047317919391196,0.0,4.440892098500626e-16,0.9274838028847876,0.08035317986760701
0.5116133651206911,0.5379877584057019,0.6811509898107174,0.0,0.822937402174893,0.4474581270978658,0.04329559605076794,9.71445146547012e-17,0.3986275396169545,0.7079624748649409,0.3034926303004871,0.6628660577899481,0.07251618742899757,0.3174542354727048,0.5428139081772336,0.5588936800881399,0.3568746325800536,0.9076920999992772,0.0,6.661338147750939e-16,0.9274838125710074,0.08035373324891613
0.5271992386397666,0.5351556755012222,0.6751682545467936,0.0,0.8076780595748955,0.4354648882595875,0.0428634284570788,9.71445146547012e-17,0.40837020811174274,0.729758280501347,0.3282425038688226,0.638789076329144,0.07251619711520951,0.3234492217027973,0.5355102933637514,0.5546589325223366,0.38012615054555354,0.9101440419146929,0.0,6.661338147750939e-16,0.9274838028847876,0.08035317986760701
0.5420858167928988,0.5338513853620153,0.6681349482735697,0.0,0.7762053368358146,0.4313292445015112,0.0410231977052552,0.0,0.36836912592895354,0.6586258418609449,0.33648279235982664,0.621174935729754,0.0725161997185087,0.33049692993650803,0.5266897609530332,0.5464999859575492,0.41116153954800083,0.9126511769382848,0.0,4.440892098500626e-16,0.9274838002814887,0.08035303113912796
0.5500489658513277,0.5359151361451276,0.6616680597575653,0.0,0.7427697027454898,0.4382446549907363,0.0388384799883178,0.0,0.3777480310700796,0.5604938341757791,0.3267454422438243,0.6156367552431616,0.07251619711522422,0.3369770604195429,0.5175696216768397,0.5393524831100152,0.44065803077454735,0.9146189501401283,0.0,4.440892098500626e-16,0.9274838028847876,0.08035317986760701
0.5504739498100462,0.5442991508610061,0.6539180571315761,0.0,0.70671237674955,0.45969212140789273,0.03665745155485356,9.71445146547012e-17,0.5325052310375589,0.4696037130855887,0.30385995020036455,0.6177968667876721,0.0725161964288964,0.34474293247685067,0.5061764953241479,0.5341130924102586,0.47412044769245565,0.9167643044737526,0.0,4.440892098500626e-16,0.9274838035711133,0.08035321907782816
0.5466338344196515,0.5537855063057661,0.6478715449888313,0.0,0.6786246519577969,0.4774687469152362,0.0350111779600597,9.71445146547012e-17,0.6338067342128894,0.43563573820414686,0.2911388018005759,0.6149670205820801,0.07251619711520951,0.350801825880968,0.5020907401655474,0.5239991293583302,0.5020947234414557,0.9187039905579848,0.0,4.440892098500626e-16,0.9274838028847876,0.08035317986760701
0.5398001533421575,0.5669654940215413,0.6401204849715325,0.0,0.637680491934465,0.49135110439359897,0.03270315038394178,9.71445146547012e-17,0.5712359931110804,0.44825051013503747,0.2956953564839933,0.5950675971637569,0.07251619732579084,0.358568757447738,0.5042560229952802,0.5004991276635486,0.5421934607421868,0.9215726907978672,0.0,4.440892098500626e-16,0.9274838026742129,0.08035316783735562
0.5306371538775088,0.57750145309854,0.6332481838912716,0.0,0.6003108277582347,0.5036782211327406,0.03160056394057198,9.71445146547012e-17,0.45188153698951405,0.4872008148589795,0.3055089231524897,0.5808316779936105,0.07251619711520951,0.36545513077863967,0.4892657152275639,0.5085971340695146,0.5684514684911761,0.9224135412718031,0.0,6.661338147750939e-16,0.9274838028847876,0.08035317986760701
0.5180307693088277,0.5862132603181159,0.62652529941766,0.0,0.5670883886336984,0.5230172194722724,0.03187249570027184,9.71445146547012e-17,0.40870789513299643,0.518509707237077,0.3071320266519501,0.5856647663725258,0.07251619706904372,0.3721917816686733,0.4494894610248039,0.5585972753048374,0.5803183018552032,0.9209272062891074,0.0,4.440892098500626e-16,0.927483802930956,0.08035318250527301
0.5040726720747404,0.5961816216673966,0.6201484993312363,0.0,0.5409224470973296,0.5431781121014563,0.03175390894551766,0.0,0.4498343762164666,0.514782683296485,0.30581763019596564,0.6032487083802707,0.07251619711520951,0.3785816391538964,0.42510635261457885,0.585508090241543,0.6000628409845614,0.9207163720498723,0.0,4.440892098500626e-16,0.9274838028847867,0.08035317986760701
0.48569210204623986,0.6141727603595349,0.6122525562773493,0.0,0.5191751494940857,0.560853929868501,0.029400838369554316,9.71445146547012e-17,0.6021228506449184,0.42763065822475005,0.307388838951783,0.6350616610852224,0.07251619713005164,0.38649374819152055,0.45156571710529825,0.5285083535086343,0.6572621103989471,0.9255612115968184,0.0,4.440892098500626e-16,0.9274838028699586,0.08035317902042212
0.4691873970074157,0.6302361933568755,0.6053682500562287,0.0,0.5111510483476553,0.5603354351829335,0.02757128077120452,9.71445146547012e-17,0.7596075203732362,0.2666195696872054,0.30794893530160206,0.6660790601289568,0.07251619711522422,0.39339214349995333,0.474624410224461,0.47997680106894336,0.7018394355350184,0.9297146316496008,0.0,4.440892098500626e-16,0.9274838028847876,0.08035317986760701
0.45437704032697396,0.6402232155793872,0.598945410682691,0.0,0.5119018692820821,0.5411344280613852,0.027948601656713312,9.71445146547012e-17,0.8480778346759958,0.08193703416302056,0.304703146671795,0.6921423674600833,0.07251619711185708,0.39982812201961854,0.44992651594763977,0.5101026968808107,0.7083572472402224,0.9292795810222971,0.0,4.440892098500626e-16,0.9274838028881494,0.08035318005966026
0.44372826580245434,0.6433582866758929,0.5926738383666171,0.0,0.5156225727021819,0.5096217302243725,0.02846935915468085,9.71445146547012e-17,0.8027644419685113,0.036166279081869035,0.3039857827610419,0.7098778534041683,0.07251619711520951,0.40611252917200474,0.41436483055589335,0.5576330150775348,0.7027819784359988,0.9275719624194627,0.0,4.440892098500626e-16,0.9274838028847876,0.08035317986760701
0.4379548776241365,0.6382522172200569,0.5847227830838209,0.0,0.5207523010382286,0.46197658187504814,0.0268544270599278,0.0,0.5502988451036976,0.29448533899480156,0.3128172738792954,0.7186951233118934,0.07251619711627283,0.41407987388411643,0.4032916005520768,0.5631815069766333,0.7147914705271905,0.9281546717975173,0.0,6.661338147750939e-16,0.9274838028837271,0.08035317980696986
0.4341295541709937,0.6298613454562916,0.5776302987264973,0.0,0.5345546457097189,0.4218538669816537,0.02453364984336237,9.71445146547012e-17,0.4069792583477469,0.5209938117247137,0.3212845975624956,0.7217297309230171,0.07251619711520951,0.42118689296689793,0.41377443515082746,0.544014253283418,0.7470318343056226,0.9308396629513531,0.0,4.440892098500626e-16,0.9274838028847876,0.08035317986760701
0.4269107305476803,0.622571366893595,0.5709636255427271,0.0,0.5610549967998755,0.39397341202843555,0.022905264262285896,0.0,0.5540434142748947,0.46204173936557325,0.3215493969429468,0.7276948762812481,0.07251619711497315,0.4278672200091805,0.4223313439256966,0.5372974973425606,0.7907189834571042,0.9337694541445414,0.0,2.220446049250313e-16,0.9274838028850372,0.08035317988195433
0.4212037348466862,0.6162950738532542,0.564741625078566,0.0,0.5788607226280923,0.3767339781865311,0.021346213253271462,9.71445146547012e-17,0.7326156224056225,0.30548438720672766,0.31779519609038376,0.7357987927044904,0.07251619711522422,0.4341019583495916,0.4154529284523871,0.5313648478361657,0.8176690105548934,0.933951416360217,0.0,4.440892098500626e-16,0.9274838028847894,0.08035317986760701
0.4206641092780086,0.608234380768951,0.5572112372527512,0.0,0.5732847430630607,0.3640829953991638,0.01890634008141656,9.71445146547012e-17,0.7133818970230075,0.22893210258237484,0.31668021640586774,0.7452237828391963,0.07251619711528334,0.441647763316325,0.38479936500665346,0.5071566428944365,0.813393555635157,0.9293216577702079,0.0,4.440892098500626e-16,0.9274838028847183,0.08035317986364585
0.4215803810790865,0.600177529582149,0.5505886096754433,0.0,0.5642137234381833,0.36155537126492776,0.01795456851992483,9.71445146547012e-17,0.5931438268943074,0.2172706561743715,0.3277135854182301,0.7486397350250087,0.07251619711520951,0.44828395444062785,0.3630998037983364,0.47824134051249345,0.8108405872843605,0.925566769979346,0.0,4.440892098500626e-16,0.9274838028847876,0.08035317986760701
0.4193793977548193,0.5901230492446183,0.5431759334824375,0.0,0.569426615827498,0.3691063633832825,0.019687887027982853,9.71445146547012e-17,0.4903145652847759,0.19417875748406108,0.3552326592860779,0.7447303501773286,0.07251619711519469,0.4557118199036919,0.3663332470725429,0.4533806937787439,0.8406395823985813,0.926185387318287,0.0,4.440892098500626e-16,0.9274838028848071,0.08035317986876138
0.4160215006221076,0.5822587135954794,0.5362036895136455,0.0,0.5727359449920724,0.37626222325776315,0.02147776545149771,9.71445146547012e-17,0.4275912284829343,0.19873353691700008,0.35984548305396535,0.7451779400735505,0.07251619711520951,0.46269835012264937,0.36765845799396324,0.46523494092674156,0.8634188859006295,0.928030679222843,0.0,4.440892098500626e-16,0.9274838028847876,0.08035317986760701
0.41376448018848916,0.5779935509983997,0.5292325301381378,0.0,0.5578327393563582,0.37399392984186186,0.020877127306266674,9.71445146547012e-17,0.3809027811362292,0.2626054572672468,0.3177563635818801,0.7591767470290014,0.07251619711522422,0.4696837855448672,0.3408980319712889,0.5199917837033716,0.8467935683151442,0.9271112354942099,0.0,4.440892098500626e-16,0.9274838028847823,0.08035317986730602
0.41044651040326535,0.5748696570960483,0.5222906992721331,0.0,0.5423979624838355,0.3669400315883862,0.019551567666346692,9.71445146547012e-17,0.3852255835072652,0.31793539165155615,0.2775207941655078,0.7742958606406445,0.07251619711520951,0.476639829560043,0.3173988570747408,0.5432073249265947,0.8332366714803561,0.9251796671916779,0.0,4.440892098500626e-16,0.9274838028847876,0.08035317986760701
0.4035947445378974,0.5705345300887404,0.5149167778266581,0.0,0.5457495157975369,0.36184947180932625,0.019339427725214797,9.71445146547012e-17,0.47379963374746015,0.3128908841357283,0.2880221876266007,0.775707417266724,0.07251619711520951,0.4840288531912449,0.3263920487920906,0.46846418893010267,0.8650822342587015,0.9240623800027592,0.0,4.440892098500626e-16,0.9274838028847876,0.08035317986768443
0.3980442031060956,0.5692569109329352,0.5085163537015968,0.0,0.5546549988363697,0.3621892601226409,0.01875613022108724,0.0,0.5559118152770973,0.3618159749809069,0.31115156876123556,0.7639281936344622,0.07251619711522422,0.49044239041218196,0.32410447956803523,0.39986940102915725,0.8866586951181672,0.9211685081058683,0.0,4.440892098500626e-16,0.9274838028847867,0.08035317986760701
0.39553084294463,0.5730629163315056,0.5016951231957242,0.0,0.55713111579635,0.3689313880211384,0.016421211281019032,9.71445146547012e-17,0.5823909828042517,0.5478037483696744,0.31382036983296857,0.7422045007804972,0.07251619711522422,0.4972775970124339,0.27712422679425686,0.40368248422988984,0.861607028082676,0.9141831999950547,0.0,4.440892098500626e-16,0.9274838028847876,0.08035317986758561
0.3938637659300565,0.5775918999543956,0.49468973864173676,0.0,0.557811713467069,0.3840679316216333,0.014272578381726575,9.71445146547012e-17,0.5643376699882989,0.7077009561185638,0.3113018137897866,0.71806186376815,0.07251619711520951,0.50429731780016,0.2269840178974274,0.438610648145751,0.8349819030325669,0.908047327315491,0.0,4.440892098500626e-16,0.9274838028847876,0.08035317986760701
0.3901184734309992,0.5779673430449918,0.487792830321363,0.0,0.563380502326257,0.4062257921455771,0.014357624937885172,9.71445146547012e-17,0.5337389949574974,0.6681545746588997,0.3235213762009781,0.6996004435319492,0.07251619711520951,0.5112083145894333,0.22256359611330012,0.44231300734703183,0.857899143401144,0.9079522760138854,0.0,4.440892098500626e-16,0.9274838028847867,0.08035317986761276
0.38503971291041944,0.5770548824280494,0.4807278565999745,0.0,0.5681153624014232,0.4245978410596263,0.014976311060024283,9.71445146547012e-17,0.4984961640916461,0.5298504407212964,0.3277858669834235,0.6871115088261597,0.07251619711522422,0.5182877392315824,0.24237855720798684,0.4279042983865722,0.8950851652012171,0.9109807369400365,0.0,4.440892098500626e-16,0.9274838028847876,0.08035317986760701
0.3805425628872962,0.5785166273472195,0.47385057261174857,0.0,0.5666391245990505,0.4279731563656337,0.014210129530190518,9.71445146547012e-17,0.4654325090738983,0.4330047080645305,0.30418434416325896,0.6805756944291517,0.07251619711522422,0.5251791415374122,0.2548535538394745,0.42097465129475964,0.9028311317336337,0.9130801550919445,0.0,4.440892098500626e-16,0.9274838028847876,0.0803531798676056
0.37725469350317326,0.5818615896474006,0.4670862073807178,0.0,0.5675411403417554,0.41879867141936694,0.01279178102587808,9.71445146547012e-17,0.4452408859507265,0.3637107032223926,0.28056116114607205,0.6804603649117471,0.07251619711522422,0.5319573919187864,0.2618248624385462,0.41865545754316,0.8972685013301964,0.9144084768244332,0.0,4.440892098500626e-16,0.9274838028847876,0.08035317986760701
0.37498866481530974,0.5865720968116256,0.459341603684013,0.0,0.5804772966363752,0.40045412237935046,0.011518390796828148,9.71445146547012e-17,0.44538871479499265,0.29819202116931887,0.28497076768445967,0.6883284165869075,0.07251619711522422,0.539717835195817,0.2715598638856509,0.4137237125151785,0.899282885131842,0.9160035024415816,0.0,4.440892098500626e-16,0.9274838028847876,0.0803531798676074
0.37287854573442175,0.5900207382632675,0.45298845057229387,0.0,0.5935670594950155,0.3933711438082519,0.010753954758133233,9.71445146547012e-17,0.44809624879230986,0.33557800972747703,0.30086421514601586,0.6965874229045061,0.07251619711522422,0.5460839763274765,0.2812820235959226,0.4091833867883494,0.9039158183780556,0.9174973358684264,0.0,4.440892098500626e-16,0.9274838028847876,0.08035317986760701
0.36871257448456013,0.5930934019314396,0.4452389617915352,0.0,0.6044417658612827,0.4081040068472165,0.009988570932243368,9.71445146547012e-17,0.43851971543330964,0.5309730125829386,0.31343462545164585,0.7026318505691851,0.07251619711520951,0.553849352140711,0.2932686050621278,0.40527428934209553,0.9047541548394173,0.9193491958262658,0.0,4.440892098500626e-16,0.9274838028847876,0.0803531798676069
0.36563697763671393,0.596877366712439,0.43821005454261874,0.0,0.6192550853627314,0.4334722204015701,0.009630312871531599,9.71445146547012e-17,0.4404026790420287,0.5936263407726404,0.31963389074054505,0.7025219480057396,0.07251619711520951,0.5608926735538029,0.3005345922861924,0.3998459488594861,0.9036029070710923,0.9203248452303461,0.0,4.440892098500626e-16,0.9274838028847876,0.08035317986760701
0.3656675806616329,0.6033222067904886,0.4309924447761141,0.0,0.6464768704177023,0.45651978865768983,0.009838592793132928,0.0,0.472361622299845,0.34364050148027536,0.3264699132049543,0.6982995651201147,0.07251619711522422,0.5681250462027264,0.30439687301970864,0.39096957204635885,0.9053227497814875,0.9205686303313643,0.0,4.440892098500626e-16,0.9274838028847876,0.08035317986760704
0.367902378378041,0.6080999051737407,0.4246507352490734,0.0,0.6616843281962854,0.46507680982456157,0.010528948005544603,9.71445146547012e-17,0.49522972407912197,0.18574737387354207,0.3363712161210421,0.7009409707838143,0.07251619711520951,0.5744797179059201,0.3192368489935138,0.3906231659823973,0.91176059252206,0.9229007377802816,0.0,4.440892098500626e-16,0.9274838028847876,0.08035317986760701
0.371631417256904,0.6095308808579303,0.41725867890716817,0.0,0.6546264185296656,0.4582055231056359,0.01165429004090246,9.71445146547012e-17,0.4944321484309825,0.37704943125229773,0.35135589494766245,0.7176932456271832,0.07251619711520951,0.5818869046098585,0.3589098804558635,0.4063100915057696,0.9232721334175702,0.9298549891247836,0.0,4.440892098500626e-16,0.9274838028847876,0.080353179867607
0.3750101894243795,0.6086867722222616,0.4107076945348582,0.0,0.6506996389022619,0.4481859269946537,0.012176531915008781,0.0,0.527168669361812,0.5585393116774628,0.35418587743661006,0.7310932048110113,0.07251619711522422,0.5884513093494318,0.3924258375118441,0.42198219124247416,0.9252098855825439,0.9358028736932376,0.0,4.440892098500626e-16,0.9274838028847876,0.08035317986760701
0.3781943641126951,0.6070005490593806,0.4030631077964497,0.0,0.6739873089527388,0.4442243874339623,0.011382021963527444,0.0,0.6516094884847079,0.4083691372268759,0.33251761831915827,0.7306209988842802,0.07251619711522422,0.5961115568467876,0.40559832537276286,0.4254582376879341,0.9065918037803913,0.9379121005366384,0.0,4.440892098500626e-16,0.9274838028847867,0.08035317986760701
0.3801103098913377,0.6039693156655308,0.3967261242523594,0.0,0.6934368506993678,0.4451718590338483,0.009810143294862406,9.71445146547012e-17,0.7197299824021317,0.1764140038132891,0.31010507208865984,0.7272243082249217,0.07251619711522422,0.6024615192411084,0.4062170399373404,0.4120488944839167,0.886899451406248,0.9372368130195543,0.0,4.440892098500626e-16,0.9274838028847876,0.08035317986760701
0.382086189204809,0.5972887212681708,0.38921322414211246,0.0,0.6893969356256193,0.44423419506703576,0.007543599859194616,9.71445146547012e-17,0.6538196242868086,0.08296035675291624,0.30008221947341596,0.7337660571887366,0.07251619711520951,0.6099898027310717,0.4124803096769192,0.3870406157850965,0.8759183884207298,0.9368583053954032,0.0,4.440892098500626e-16,0.9274838028847876,0.08035317986760701
0.3857174183725492,0.5894209327981207,0.38216612222506463,0.0,0.6823565843786681,0.4330154841606083,0.005687047660072997,9.71445146547012e-17,0.5841599488454616,0.1649507950389304,0.3038564449239138,0.744417844386768,0.07251619711520951,0.6170513353301245,0.41926335876831367,0.40220419481082104,0.873816682844053,0.9384899200436259,0.0,4.440892098500626e-16,0.9274838028847876,0.08035317986760701
0.39247754125991613,0.5812687110496769,0.37513779448263174,0.0,0.6967204115811725,0.40748977875120007,0.004623559743074823,0.0,0.6280781429104066,0.33995442049379193,0.31308815972454723,0.7512911930967947,0.07251619711522422,0.6240940601095105,0.42217990935659877,0.4804681136743554,0.8730072503284285,0.9425233587615924,0.0,2.220446049250313e-16,0.9274838028847858,0.08035317986760701
0.3988794252169528,0.5726656100296709,0.3689171517789184,0.0,0.7172390022974254,0.3844812446166931,0.004270992438055288,0.0,0.6491228158731787,0.5038892556311697,0.3213296646733275,0.7532491013737745,0.07251619711520951,0.6303274452636285,0.43156729921864034,0.5232173903689166,0.8724856958424487,0.9458470850252425,0.0,4.440892098500626e-16,0.9274838028847867,0.08035317986760701
0.4043652950359619,0.5586679826648727,0.3611556000250592,0.0,0.7341119993823326,0.37041267585740223,0.004266393293167581,0.0,0.5269884462341784,0.6338705598748084,0.328705017423955,0.7507964721494549,0.07251619711522422,0.6381048889458695,0.4637487123136328,0.46428902386689685,0.8721581187213818,0.9477493078940835,0.0,2.220446049250313e-16,0.9274838028847858,0.08035317986760701
0.4071087518564314,0.5456295678819492,0.35498618705041807,0.0,0.7391904446346784,0.3686662915278559,0.004260931160500414,9.71445146547012e-17,0.4598839077268286,0.6382102744943194,0.3364859157253074,0.7445381894632304,0.07251619711520951,0.6442869260097196,0.4989057782490569,0.423599522351644,0.8715528550605471,0.951046428467599,0.0,4.440892098500626e-16,0.9274838028847876,0.08035317986760701
0.4102199341930413,0.5280473087519323,0.3470116802033113,0.0,0.736925996365509,0.3733602875142956,0.0037880650950883332,9.71445146547012e-17,0.5971975632103647,0.5109145165389445,0.3504407447974034,0.7290931153941278,0.07251619711520951,0.6522777400639608,0.5419641954502072,0.5011822552244318,0.8675187925016354,0.9612276697107998,0.0,6.661338147750939e-16,0.9274838028847894,0.08035317986760701
0.4153966259733161,0.5148556659948643,0.3400442769930472,0.0,0.7329188884613204,0.3810383761442329,0.0028414956673672442,9.71445146547012e-17,0.7337835549555691,0.4583091904834293,0.3470061862088264,0.7074875793939848,0.07251619711520951,0.6592593922136174,0.5612463555830303,0.5857200283675645,0.8544419103946792,0.9681012924858541,0.0,6.661338147750939e-16,0.9274838028847894,0.08035317986760701
0.42409486285630765,0.505509410691066,0.3334485634442642,0.0,0.7320710055986612,0.38952880297602027,0.0016793897705691396,9.71445146547012e-17,0.721976443005929,0.5720747622855358,0.32289976163727035,0.6835098145123126,0.07251619711522422,0.6658686042529466,0.5602894116596673,0.5948049000853466,0.8333019271223829,0.9682101069589848,0.0,4.440892098500626e-16,0.9274838028847876,0.08035317986760701
0.43895452911087823,0.4966098132188653,0.3260421516292533,0.0,0.7347377474477101,0.40187246476507654,0.0009378860468454153,9.71445146547012e-17,0.6083129655564644,0.8014292124870777,0.3017218794348838,0.6716416467096309,0.07251619711522422,0.6732901892925006,0.5634526139425926,0.5744516951348864,0.8158313573350835,0.9674573746487685,0.0,4.440892098500626e-16,0.9274838028847876,0.08035317986760701
0.4598618248592948,0.4878061292462166,0.31878898048482784,0.0,0.7405092073749435,0.4198335882566928,0.0016551002945338622,9.71445146547012e-17,0.49317464795501836,0.9903820338774345,0.3180557648247691,0.6940346682764478,0.07251619711520951,0.6805582389405788,0.5950422617597209,0.5849971039147484,0.8200437821524211,0.9724960039231147,0.0,6.661338147750939e-16,0.9274838028847894,0.08035317986760701
0.4820789347584747,0.48069116658826727,0.3118889967345464,0.0,0.7452517444510592,0.4432683494785655,0.002733446295365982,9.71445146547012e-17,0.49751822432676834,0.9128028358316176,0.3450818778551589,0.7197506472816739,0.07251619711520951,0.6874723750811882,0.6213456015630818,0.603983188357553,0.8214309892582454,0.9771694517889555,0.0,4.440892098500626e-16,0.9274838028847876,0.08035317986760701
0.5020820075017003,0.4752546357668529,0.30508896309673217,0.0,0.7456330982972956,0.4677544595956674,0.003056453675701176,0.0,0.6332524337346477,0.5441892486158214,0.35415878885539304,0.7224348002329881,0.07251619711520951,0.6942863367460068,0.6180415794498408,0.6019508078830995,0.8011660216092578,0.9763694389993267,0.0,4.440892098500626e-16,0.9274838028847876,0.08035317986760701
0.5204923305244076,0.4670843464757627,0.29822885491670326,0.0,0.7393326899778795,0.4775631350839625,0.0027499499719875198,9.71445146547012e-17,0.7157655722581185,0.21154517433742606,0.3532722122010788,0.7168885333454291,0.07251619711520951,0.7011604783610004,0.6142725477002937,0.5912113104686192,0.7773991795313178,0.9750672624503283,0.0,4.440892098500626e-16,0.9274838028847876,0.08035317986760701
0.5387044343457086,0.4510554547400695,0.2909195515036591,0.0,0.723503112643685,0.45619596509550026,0.0019596099762643204,9.71445146547012e-17,0.5604408684475617,0.24953311639256165,0.3501794564667761,0.719221216280399,0.07251619711520951,0.708484720510728,0.6405236375038825,0.5907708129703693,0.7679921166705119,0.9787621508911526,0.0,6.661338147750939e-16,0.9274838028847894,0.08035317986760701
0.554895518666533,0.43484308167052077,0.2841188427762419,0.0,0.710672736098281,0.4346361606231659,0.0011907303262653768,9.71445146547012e-17,0.375090128278709,0.50277290912397,0.3362874427228291,0.7233609995755366,0.07251619711522422,0.7152993431965886,0.6670039596506658,0.619688324654458,0.7593812664010731,0.9839731150845994,0.0,4.440892098500626e-16,0.9274838028847876,0.08035317986760701
0.5720854807342484,0.42359655480056546,0.27686192718814806,0.0,0.709503634986595,0.44426634719750646,0.0007173997191416426,0.0,0.37102766123142417,0.690911016785529,0.3062146144952297,0.7203047904888953,0.07251619711522422,0.7225711419338616,0.6643698587918241,0.6836372726626472,0.7325237269688083,0.986561659773213,0.0,4.440892098500626e-16,0.9274838028847876,0.08035317986760701
0.5893727196574545,0.4172237656166624,0.26952630931878263,0.0,0.7136646442288306,0.47823704413722096,0.0003891288572074325,9.71445146547012e-17,0.4309243484270998,0.7204159094971136,0.2898555859828159,0.7152587638954477,0.07251619711522422,0.7299218072497978,0.6511083775635136,0.7387289321626689,0.7038463368319903,0.987113126996964,0.0,4.440892098500626e-16,0.9274838028847876,0.08035317986760701
0.6064875577854894,0.41392947941579583,0.2622788313831217,0.0,0.7142450189115113,0.5198070018108151,4.0248502451212254e-05,9.71445146547012e-17,0.41474017524005513,0.5889739834902306,0.3110637893898603,0.7140218872556101,0.07251619711520951,0.737184126354686,0.6476906003504475,0.7473660987344459,0.6887867899812692,0.9868155595351853,0.0,4.440892098500626e-16,0.9274838028847876,0.08035317986760701
0.625296973103703,0.41426948568276634,0.254891260819207,0.0,0.7074840794811479,0.5531205755771602,0.0,9.71445146547012e-17,0.41131951379607534,0.3949179619711476,0.34977078900504127,0.711961063476334,0.07251619711520951,0.744586823481414,0.6359276165042864,0.7235458237908965,0.672339603489486,0.9836241695717165,0.0,4.440892098500626e-16,0.9274838028847876,0.08035317986760701
0.6459703695442449,0.4186870264141782,0.24770847257431405,0.0,0.6931133243495413,0.5647803409458158,0.0014027605461018888,0.0,0.5046236671935892,0.26433334779240925,0.3832629832294953,0.7057190499924024,0.07251619711520951,0.7517843390179708,0.5993952936713356,0.6923190647802819,0.6411625144583422,0.9763309043022046,0.0,4.440892098500626e-16,0.9274838028847876,0.08035317986760701
0.6665788362449796,0.424646339938791,0.24101040346047575,0.0,0.678113436055948,0.5646151808295141,0.007578448536684657,0.0,0.5442936986437219,0.25751309974834935,0.43153439393573484,0.7056475127152728,0.07251619711522422,0.7584961242066993,0.5620471889542724,0.6667307712395356,0.6115978700183327,0.9691904891295486,0.0,4.440892098500626e-16,0.9274838028847876,0.08035317986760701
0.6891819091456168,0.43045706219907576,0.2336853796772701,0.0,0.6660462608211715,0.5641980833654896,0.023252138743461437,0.0,0.3952979911847996,0.40468774715217626,0.5185315269237842,0.7220991219328345,0.07251619711520951,0.7658360928480279,0.5445945154415348,0.6513878058117903,0.5963324575201847,0.96550659850109,0.0,4.440892098500626e-16,0.9274838028847867,0.08035317986760701
0.707211429955211,0.4324082913702574,0.22745879605879793,0.0,0.6582098052124461,0.5685214558449668,0.04091718765260932,0.0,0.26620747429007896,0.5413500985479569,0.5621018262198536,0.74087999897929,0.07251619711520951,0.7720753809710273,0.5525833259758777,0.65236675160887,0.5939098289365417,0.9665432590658911,0.0,4.440892098500626e-16,0.9274838028847876,0.08035317986760701
0.7247450394198831,0.4297203444758948,0.2206071053667651,0.0,0.6496340259569007,0.5799447700280028,0.0599962306321955,9.71445146547012e-17,0.3142692242058503,0.5712961458958845,0.5164379480357035,0.7546103217872613,0.07251619711520951,0.778941108117265,0.5798418981782962,0.6676773383715258,0.5927106668326383,0.9712680519963364,0.0,4.440892098500626e-16,0.9274838028847876,0.08035317986760701
0.7393086115505318,0.42589111326674667,0.21437620918150735,0.0,0.6424546758869041,0.5881712475364664,0.07473015892205448,9.71445146547012e-17,0.41826824233156756,0.5535695365566647,0.4453922181485629,0.7645435481307405,0.07251619711520951,0.7851847866054087,0.6020011750304377,0.6809375744734467,0.5848573925044738,0.9751867113105224,0.0,6.661338147750939e-16,0.9274838028847894,0.08035317986760701
0.7535017927547534,0.42428610301308045,0.20829180791082214,0.0,0.6348485822778391,0.5860279451013662,0.0851813631793174,9.71445146547012e-17,0.4265284563521574,0.5762706249393428,0.41674464999677574,0.7771039673408993,0.07251619711520951,0.7912816409018735,0.6023291573410177,0.6793341663830894,0.5643821330279328,0.9750733963140892,0.0,6.661338147750939e-16,0.9274838028847894,0.08035317986760701
0.7688434204515195,0.4240602540776879,0.20234861708262974,0.0,0.6156427716195267,0.5798437390337605,0.09210793388603283,9.71445146547012e-17,0.3872868549821973,0.5743878067121048,0.4111505261728179,0.7867971654407562,0.07251619711520951,0.7972369772769752,0.5882984901621295,0.6675828667379733,0.5349942498774309,0.972261873247704,0.0,4.440892098500626e-16,0.9274838028847876,0.08035317986760701
0.7857422938385805,0.42297944017172673,0.19662926522082402,0.0,0.5797053437992842,0.5780579312368003,0.09702232082338541,0.0,0.3773411764224889,0.5010810707828646,0.3980526295812524,0.7897732429442188,0.07251619711522422,0.8029680239280519,0.5747582043829578,0.6558603738755728,0.5055937952388971,0.9694986114560527,0.0,4.440892098500626e-16,0.9274838028847867,0.08035317986760701
0.8041108190702797,0.41724764065715547,0.19063680403924876,0.0,0.5392273862363814,0.5841969833416503,0.10166085843297329,9.71445146547012e-17,0.38878729470958173,0.48067563254511436,0.3901448233250896,0.7965524763557221,0.07251619711520951,0.8089727722343893,0.5749181428134413,0.6535054847367512,0.48894943011189973,0.9692861588185009,0.0,4.440892098500626e-16,0.9274838028847876,0.08035317986760701
0.8206252355223278,0.40405239556706196,0.18483633842344194,0.0,0.5117606314492715,0.5983291244095311,0.1067974806224648,0.0,0.39500494689660465,0.6206926155104577,0.40575579638417897,0.8156257195927212,0.07251619711522422,0.8147851772983243,0.5980889718215003,0.6676101375051751,0.497640881923199,0.9734422086452117,0.0,4.440892098500626e-16,0.9274838028847867,0.08035317986760701
0.8341153886272457,0.38752712118037347,0.17929444442021503,0.0,0.48486245286706253,0.6071534558067465,0.11303753866632477,9.71445146547012e-17,0.3693068528865261,0.6761451413801272,0.42512650613301206,0.8315179682768443,0.07251619711522422,0.8203384570900794,0.6204504051355748,0.6817323424459936,0.506704667351709,0.9774916319090847,0.0,4.440892098500626e-16,0.9274838028847876,0.08035317986760701
0.844290329894539,0.3724096370185186,0.1739866996118441,0.0,0.44557327184629125,0.6004090084964607,0.12046963089256413,0.0,0.30807454974690707,0.4582066826346102,0.42853416803091,0.8308274487623546,0.07251619711522422,0.8256570299347754,0.6196374826834514,0.680069988450505,0.4923330105387871,0.9772039661596112,0.0,4.440892098500626e-16,0.9274838028847867,0.08035317986760701
0.8518585882894165,0.35841556170880606,0.16856823905580942,0.0,0.40243290371536267,0.587164665333427,0.12834949076414492,0.0,0.2810743819967198,0.2489542970395103,0.42976370637193995,0.8270398502957539,0.07251619711520951,0.8310865263295669,0.6038291460936769,0.6671007943611791,0.46337823761510233,0.9740375690351328,0.0,4.440892098500626e-16,0.9274838028847876,0.08035317986760701
0.8566447021761381,0.3451272491462676,0.16293719731398737,0.0,0.37070995992297917,0.580296583079683,0.1358004753167576,9.71445146547012e-17,0.36140684571642345,0.3573489114636811,0.4443418814631245,0.8346844083525431,0.07251619711520951,0.8367290906016867,0.588328809591351,0.6530217442976856,0.43607910175122555,0.9708415570507745,0.0,6.661338147750939e-16,0.9274838028847894,0.08035317986760701
0.8578479215834236,0.3349322134700383,0.15829946645062054,0.0,0.3589285575547888,0.583431194386029,0.14251103718170965,9.71445146547012e-17,0.46198355323441215,0.48222667557528737,0.4535725296521496,0.8390252931316136,0.07251619711522422,0.8413763259799225,0.5877623743911844,0.6521496018895903,0.4239387642489989,0.9706368710454738,0.0,4.440892098500626e-16,0.9274838028847876,0.08035317986760701
0.8564070446876584,0.3233493932079661,0.15277842700694833,0.0,0.3595989678820195,0.5969843939552153,0.15230807272617752,0.0,0.5439613761141553,0.40790036888620373,0.4452860994076021,0.8279091648397481,0.07251619711522422,0.8469086607731862,0.607069808045372,0.6690305742895717,0.4245552679750224,0.9744047866936683,0.0,4.440892098500626e-16,0.9274838028847876,0.08035317986760701
0.8552139755185197,0.31255729694250567,0.14758740951832316,0.0,0.35836396263688985,0.6115818961624979,0.16167665742248677,9.71445146547012e-17,0.5488317019541094,0.3102954349287341,0.4264746944882676,0.8067699505258359,0.07251619711520951,0.8521103176568676,0.6261689733590039,0.6789675922201752,0.42677681374648024,0.9777899222571875,0.0,4.440892098500626e-16,0.9274838028847876,0.08035317986760701
0.856809060185173,0.30331553718106585,0.14316792111071774,0.0,0.34350578259990683,0.6191297816039898,0.16830314734257873,9.71445146547012e-17,0.4857934955756369,0.3958922230076859,0.41199145088974043,0.7862419178376854,0.07251619711520951,0.8565389091078309,0.6261405984919701,0.6665161857626849,0.41828789940735156,0.977076100644247,0.0,2.220446049250313e-16,0.9274838028847858,0.08035317986760701
0.8610101849872909,0.2945993239364604,0.13841494112782937,0.0,0.32228712929362757,0.6233660468425338,0.17445662738340922,9.71445146547012e-17,0.4259786556760333,0.6028964588686585,0.40877191449335737,0.7607110412789693,0.07251619711520951,0.8613016680654733,0.6075410379968762,0.6630913419444724,0.3980484798360502,0.9739347102944098,0.0,4.440892098500626e-16,0.9274838028847876,0.08035317986760701
0.8668591095382836,0.28828491417417035,0.13335569466004882,0.0,0.310366467148926,0.6282445499450305,0.18110451208379968,9.71445146547012e-17,0.46893885295828636,0.7914795005607562,0.4238364694435321,0.7286659145598948,0.07251619711522422,0.8663712373363893,0.5725714213731674,0.7059391495122931,0.36910044079687854,0.9706028944655172,0.0,6.661338147750939e-16,0.9274838028847894,0.08035317986760701
0.8727696115246917,0.2849365848358789,0.1287310368076774,0.0,0.31007533972130263,0.6369432332316576,0.18766620991913113,9.71445146547012e-17,0.5672207559758964,0.8781497921802948,0.4297824265774707,0.7020686436746946,0.07251619711520951,0.8710053019733897,0.5321307598356881,0.7387254577671634,0.3405616276447434,0.9658854608288481,0.0,4.440892098500626e-16,0.9274838028847876,0.08035317986760701
0.8789647613735994,0.2832966822016991,0.12393421968876994,0.0,0.3156706896069567,0.6530154891404618,0.19508959793500952,9.71445146547012e-17,0.6514670877534436,0.848952456439318,0.40866010473923026,0.6844934144542405,0.07251619711520951,0.8758119165616192,0.48806185363363674,0.7153549947637572,0.3137698506992068,0.9576867184624902,0.0,4.440892098500626e-16,0.9274838028847876,0.08035317986760701
0.8837767213885821,0.2829931370100587,0.11996538565871762,0.0,0.31521081979632254,0.66988204795954,0.2014989156090261,9.71445146547012e-17,0.6396711487813846,0.7233044082911161,0.39766247728311155,0.6757944377399685,0.07251619711520951,0.8797889022726239,0.45840148018993965,0.6797884181590348,0.2978572115419862,0.951128273056991,0.0,4.440892098500626e-16,0.9274838028847876,0.08035317986760701
0.8888812835306683,0.2832940573644738,0.11484532755345189,0.0,0.29778607029442555,0.6936081564431504,0.20997605191723195,0.0,0.4972487604900404,0.47418848653282114,0.4234084975356658,0.667874660447838,0.07251619711520951,0.8849195181983271,0.44011806667413467,0.6599983296262408,0.2909192074674767,0.9471459506748685,0.0,2.220446049250313e-16,0.9274838028847858,0.08035317986760701
0.8909718933721191,0.28317183363215404,0.11082888616956943,0.0,0.2749160956206816,0.7152298522128631,0.2173305943327885,9.71445146547012e-17,0.4417084998710018,0.3599532203097333,0.44917735512287427,0.6637364880177232,0.07251619711520951,0.8889442101274869,0.44658021094771705,0.6642821910049719,0.30031436303144865,0.9482971138687875,0.0,4.440892098500626e-16,0.9274838028847876,0.08035317986760701
0.8905067073426582,0.281634916545074,0.10632398064796211,0.0,0.24701223294744495,0.741462449054364,0.22679841865821876,9.71445146547012e-17,0.5819907772527637,0.45022160940812816,0.453949865388526,0.6617555134796484,0.07251619711520951,0.8934582858080121,0.47550339564230093,0.6808552149885436,0.32596571564815946,0.9535776986603564,0.0,6.661338147750939e-16,0.9274838028847894,0.08035317986760701
0.889075176038042,0.2782409542313413,0.1021789133986214,0.0,0.23065825922488956,0.7514593244881065,0.23588838217520203,9.71445146547012e-17,0.7635123877912954,0.6195976172795163,0.44186267882785824,0.6640002113732644,0.07251619711520951,0.8976117953368363,0.49620181739807734,0.69172383532932,0.3390286928313344,0.957283760384886,0.0,6.661338147750939e-16,0.9274838028847894,0.08035317986760701
0.8889892111840072,0.2719543644502669,0.09805635881240093,0.0,0.2335906627918425,0.7317217815215727,0.24420701895892677,9.71445146547012e-17,0.7900148914039812,0.6916384009537035,0.4294953169667812,0.6712845419689639,0.07251619711520951,0.9017428445362271,0.4864847565357362,0.6842907733878683,0.3183867623303662,0.9553001347829007,0.0,8.881784197001252e-16,0.9274838028847903,0.08035317986760701
0.8905940964424419,0.26323678512310855,0.09452839782821898,0.0,0.23985407936310138,0.7078276114394533,0.25053515656938585,9.71445146547012e-17,0.6630953284645734,0.6396136039006662,0.4290055585535014,0.6779695080403751,0.07251619711522422,0.9052780764700622,0.4857133219415779,0.677114002216431,0.3033716085524105,0.9547659332531007,0.0,4.440892098500626e-16,0.9274838028847876,0.08035317986760701
0.8940781342253667,0.2494282118396407,0.09033692062012166,0.0,0.23549046118231098,0.6959199985845335,0.25738727139498613,0.0,0.41936909121696964,0.507370949938405,0.44168731597307,0.6826936844531861,0.07251619711520951,0.909478098392834,0.5215137603056963,0.6855131089053152,0.3190580798742477,0.960767762020283,0.0,6.661338147750939e-16,0.9274838028847894,0.08035317986760701
0.8977067864452317,0.2362040386098092,0.08631881991585044,0.0,0.22091926809667803,0.7022461723560844,0.26385318615606373,9.71445146547012e-17,0.2785809016242035,0.5191987890434009,0.44185579716328677,0.6877039664109628,0.07251619711520951,0.913504365038025,0.5320998621977981,0.7041578282550631,0.32761828212698685,0.9632794295618723,0.0,4.440892098500626e-16,0.9274838028847876,0.08035317986760701
0.8998562802731151,0.22743520438551812,0.08281399256647537,0.0,0.20212612921328524,0.7208241757686703,0.26982761165420455,9.71445146547012e-17,0.3637930702010812,0.7671573480977649,0.41738928677180065,0.6968074214854676,0.07251619711520951,0.9170163585465445,0.4734315401881979,0.7222835140307211,0.2960495763583717,0.9548136531341864,0.0,6.661338147750939e-16,0.9274838028847894,0.08035317986760701
0.8997905611285053,0.22116081013062527,0.07956603232639903,0.0,0.1820382192025501,0.7409104018722329,0.2756362783739957,9.71445146547012e-17,0.49179726415997416,0.90110612957561,0.4130959429457639,0.7118370385390973,0.07251619711520951,0.9202709800998634,0.4094938596962052,0.7381018037734037,0.2591026359148305,0.945413529903055,0.0,4.440892098500626e-16,0.9274838028847876,0.08035317986760701
0.8953294025772776,0.2123421260895566,0.0750193930208608,0.0,0.1544934382787852,0.7583129201106003,0.2851535119242143,0.0,0.5096060531793322,0.567862431967972,0.4872717159218603,0.7409843102598916,0.07251619711522422,0.9248269284681236,0.3909152330462593,0.7487213274706512,0.2454529953798943,0.9429268543620868,0.0,4.440892098500626e-16,0.9274838028847867,0.08035317986760701
0.8879381950735115,0.20325153927773165,0.0715336087259203,0.0,0.13559462333303413,0.759327516413187,0.2972111331655021,9.71445146547012e-17,0.47548925877575343,0.29503677661481054,0.5699370538237374,0.7598718967310907,0.07251619711522422,0.9283198514434496,0.40018531997855433,0.7227432384284498,0.25236404708014337,0.9430439078385486,0.0,4.440892098500626e-16,0.9274838028847876,0.08035317986760701
0.8748184981143543,0.18897721303108383,0.06778503727356289,0.0,0.11901658845718932,0.7456137164361942,0.32050980253578837,9.71445146547012e-17,0.4958128479052434,0.392940096845768,0.6526987957427473,0.7667593300247963,0.07251619711520951,0.9320761215798846,0.39686497014679034,0.638440972880133,0.2610620337494467,0.9382338801175099,0.0,4.440892098500626e-16,0.9274838028847876,0.08035317986760701
0.8622722513485184,0.1769752629252508,0.06513996214727213,0.0,0.10937287281339053,0.7336873587790913,0.3471159447308969,9.71445146547012e-17,0.5548828192750109,0.5801168234982762,0.7345456501510108,0.7647177282074322,0.07251619711520951,0.9347266400130806,0.3956575634208157,0.5751917413781911,0.267258884014832,0.9347776043099012,0.0,4.440892098500626e-16,0.9274838028847876,0.08035317986760701
0.8475090292301937,0.1655650661178092,0.06258463155255767,0.0,0.09964296593070604,0.7327127737690736,0.3858685871301424,0.0,0.6351341563501164,0.6162989134378012,0.8628877980386576,0.7613965814655748,0.07251619711522422,0.9372872309080887,0.41437168625600584,0.5617323419144853,0.2739511720033354,0.9369165544225773,0.0,2.220446049250313e-16,0.9274838028847858,0.08035317986760701
0.8336362382814948,0.1579185620204404,0.060721715674098786,0.0,0.08505717320783213,0.7507500673607004,0.42840390119873156,0.0,0.6678166784828131,0.556357012135898,0.9301068910273933,0.7598709426931123,0.07251619711520951,0.9391539835120942,0.4437559998303655,0.6030381527792557,0.27540895150564637,0.9437506469280317,0.0,4.440892098500626e-16,0.9274838028847876,0.08035317986760701
0.820937927652829,0.15429406781301758,0.059546369218160256,0.0,0.06412639133299264,0.7871222898677621,0.4698709749605939,0.0,0.62164127299004,0.5501775963250349,0.8532098612635091,0.7608054334827905,0.07251619711522422,0.9403317504589978,0.4628265542610759,0.6711642806786315,0.2643725997452364,0.9506101603730945,0.0,2.220446049250313e-16,0.9274838028847858,0.08035317986760701
0.809177569316232,0.1551482761358236,0.05878547284903601,0.0,0.05880890481265899,0.8262844479440118,0.5026140630731547,9.71445146547012e-17,0.5835369782562985,0.6124330794221319,0.6739095729428869,0.7611335438124156,0.07251619711520951,0.9410941911211583,0.4321134358451246,0.7220370675413648,0.22608740272547667,0.9478945822700116,0.0,4.440892098500626e-16,0.9274838028847876,0.08035317986760701
0.7983011185192521,0.1600910773655848,0.05818921859941262,0.0,0.08601412029079442,0.8522587775101396,0.5195875420501423,9.71445146547012e-17,0.6258189086651045,0.7121378788512257,0.4653629305443066,0.7582943472897874,0.07251619711520951,0.9416916150774055,0.3281669286963389,0.7185934203874815,0.15331227728010965,0.9295946941145736,0.0,6.661338147750939e-16,0.9274838028847894,0.08035317986760701
0.7875393974582672,0.16538561520123563,0.057734304125503066,0.0,0.12062829599079716,0.8668664458772752,0.5232476356395424,9.71445146547012e-17,0.6458046357402526,0.7716088533549512,0.280785787207996,0.7552206890024271,0.07251619711520951,0.9421474124492093,0.20121121254119068,0.6719189123324725,0.06824571169930405,0.9077379215873487,0.0,4.440892098500626e-16,0.9274838028847876,0.08035317986760701
0.7777457063636644,0.16771646990332156,0.05746036991615422,0.0,0.13171796626732846,0.8739975407304152,0.5180551056997017,9.71445146547012e-17,0.5607810607921206,0.7320994826743634,0.18019267706273684,0.7558282038662183,0.07251619711520951,0.9424219014304073,0.12572567683029234,0.6172005505885316,0.012979518451511574,0.8965245611186026,0.0,4.440892098500626e-16,0.9274838028847876,0.08035317986760701
0.7643301095674615,0.17228923695608112,0.05702488978317566,0.0,0.12710896867173727,0.8805448168359358,0.5047918643793868,9.71445146547012e-17,0.46221252736153245,0.6387271858486154,0.11560553152424471,0.7620094869680463,0.07251619711520951,0.9428582794371443,0.09019349439071611,0.5741233647593518,0.0,0.8843643787659969,0.0,4.440892098500626e-16,0.9274838028847876,0.08035317986760701
0.7395427841829074,0.18687875389420694,0.055846818114922314,0.0,0.1152913254857117,0.8923243141892476,0.4783407351239103,9.71445146547012e-17,0.47199789568261874,0.5312052397688487,0.06235070407743115,0.775123585698708,0.07251619711520951,0.9440387536351572,0.09274584353520332,0.5652141315789443,0.06422949773584197,0.8531926832563475,0.0,8.881784197001252e-16,0.9274838028847903,0.08035317986760701
0.7191569564616747,0.19805108918709924,0.054581595049671305,0.0,0.11896027707406631,0.9007504000468998,0.45925813706816426,9.71445146547012e-17,0.5246909922360731,0.49499811771508617,0.0744530051401972,0.7729925084705354,0.07251619711520951,0.945306577229017,0.09428784894670983,0.561855274219127,0.12172494190586747,0.8223922639823433,0.0,6.661338147750939e-16,0.9274838028847894,0.08035317986760701
0.6974864071662858,0.20542177272308404,0.052836103171128856,0.0,0.14692869813168458,0.9064066351959439,0.44511007657580165,0.0,0.5559871448210539,0.5006949253744849,0.16722601750671237,0.7473143292552082,0.07251619711522422,0.9470556981710119,0.0684608932263906,0.5322610354307002,0.15170764009964888,0.7853527120384216,0.0,4.440892098500626e-16,0.9274838028847867,0.08035317986760701
0.6795564001243959,0.2116317883452814,0.05107487626059659,0.0,0.17503533827906687,0.9069078033825957,0.4390939569024181,9.71445146547012e-17,0.5547549410391817,0.45686738828906703,0.2755305877902536,0.7249339356202134,0.07251619711520951,0.9488205764575777,0.05214180072297836,0.5085424123402511,0.17244043366028805,0.7542406061975617,0.0,4.440892098500626e-16,0.9274838028847876,0.08035317986760701
0.659963145202136,0.2245236107786397,0.048928950881021005,0.0,0.18923328156180536,0.9031633997820852,0.438127426020656,9.71445146547012e-17,0.5428515234877033,0.29562823936950666,0.3685444671623591,0.7252955881648351,0.07251619711520951,0.9509708896181939,0.07811544502322221,0.5163982651329384,0.2239354532571589,0.7236841449932108,0.0,6.661338147750939e-16,0.9274838028847894,0.08035317986760701
0.642699787306036,0.2409136954984037,0.04697088439917907,0.0,0.19655471218783174,0.9016289367006796,0.4428689840320763,9.71445146547012e-17,0.5784888722806385,0.28335146579923787,0.4253629816721918,0.7388628901099361,0.07251619711520951,0.9529329220146062,0.1178794480822063,0.5366285570314098,0.2754582526440359,0.6979431417791222,0.0,4.440892098500626e-16,0.9274838028847876,0.08035317986760701
0.626076188190646,0.2595703098219617,0.04513272201745833,0.0,0.2130564162985492,0.9073359836908834,0.4530853652263902,9.71445146547012e-17,0.6916371013118181,0.5911103832467777,0.4640725397710158,0.7494329174467182,0.07251619711522422,0.9547748021492093,0.13755143687442306,0.5416236591744656,0.30145132266568897,0.6708517845964019,0.0,2.220446049250313e-16,0.9274838028847858,0.08035317986760701
0.6115342654588829,0.2768423236000024,0.043533463036380726,0.0,0.2331777325363851,0.915383338755942,0.46440432544264043,9.71445146547012e-17,0.7477916981254126,0.7871932540595025,0.4797583214332709,0.7555646878393221,0.07251619711522422,0.9563773321574097,0.12628778094458504,0.5236577699996126,0.29823164147061654,0.6425205296608105,0.0,4.440892098500626e-16,0.9274838028847876,0.08035317986760701
0.5989088717925075,0.29178955286343355,0.042103608994866315,0.0,0.25000340593104386,0.920514975095468,0.47352108344797134,0.0,0.6655989710545354,0.569818983863668,0.47183893202163074,0.7603061051272508,0.07251619711522422,0.9578101660538396,0.09417643078638882,0.49006625983611585,0.28033124914214635,0.613168417910372,0.0,4.440892098500626e-16,0.9274838028847867,0.08035317986760701
0.5880292943960195,0.3063956811751727,0.04085602171517,0.0,0.26332729925015075,0.9226837790157851,0.48052688643784314,9.71445146547012e-17,0.5858884908149056,0.33054324242965066,0.44210340858637576,0.7647024635997726,0.07251619711520951,0.959060355832518,0.07969330793608087,0.46939726674581905,0.2806614631686717,0.5886618128046752,0.0,4.440892098500626e-16,0.9274838028847876,0.08035317986760701
0.5754769801405246,0.3284474979146813,0.039424116610617066,0.0,0.277337878987318,0.9223725911919958,0.48767643146851214,0.0,0.6400167355136138,0.4441815019233895,0.3793437779262467,0.7698807450228111,0.07251619711520951,0.9604951839032474,0.11695045134687732,0.48384480548275377,0.33347625917114687,0.5675238727233127,0.0,4.440892098500626e-16,0.9274838028847876,0.08035317986760701
0.565258192027938,0.3505886130428685,0.03820224414484441,0.0,0.2860186086571195,0.9196090381428894,0.49191443921381717,9.71445146547012e-17,0.7083882681195393,0.642940009296855,0.33428959543061904,0.770426555181122,0.07251619711520951,0.961719517539913,0.14451571715673772,0.4945249636615472,0.3800417061758523,0.5503727018709075,0.0,4.440892098500626e-16,0.9274838028847876,0.08035317986760701
0.5565858117001574,0.37138479988234707,0.037063663119992984,0.0,0.29067254979006396,0.9166065133177039,0.4938757967656507,9.71445146547012e-17,0.6854018439302973,0.6315211574829862,0.32371716603538603,0.7666360199165831,0.07251619711522422,0.9628604019212101,0.12458888198903573,0.4728787736636981,0.3866735428126704,0.5303949959165912,0.0,4.440892098500626e-16,0.9274838028847867,0.08035317986760701
0.547193073295817,0.3951867858841662,0.03568427159538823,0.0,0.2960321069632574,0.9200481528879357,0.49508148282710907,9.71445146547012e-17,0.6613480280280016,0.5092921347303343,0.3232033669553942,0.7675242353586302,0.07251619711522422,0.9642425961427359,0.10035881725633011,0.44006815706152835,0.39471885630558035,0.5075971802288821,0.0,4.440892098500626e-16,0.9274838028847876,0.08035317986760701
0.5385615549049829,0.4186289354653475,0.03416547013002802,0.0,0.3056953078689529,0.9358496510953702,0.49658080224231615,9.71445146547012e-17,0.744557122395827,0.4436005478785363,0.3138167883752717,0.7838322020113813,0.07251619711520951,0.9657644938297303,0.1304855256474191,0.4371760211048432,0.44860662447992006,0.4909182214902783,0.0,4.440892098500626e-16,0.9274838028847876,0.08035317986760701
0.5340621813057582,0.43549263900941626,0.03291307200224913,0.0,0.3163524850871997,0.9437932318017235,0.49876179476011834,9.71445146547012e-17,0.7782248276722903,0.42920631290762645,0.3302728807375146,0.7997287413692549,0.07251619711522422,0.9670194702347906,0.1617891668795064,0.4639746039560606,0.49062279411542864,0.4803474112934225,0.0,6.661338147750939e-16,0.9274838028847894,0.08035317986760701
0.5328244232199371,0.4508384505752009,0.031575971233017475,0.0,0.32912280255151616,0.9316420831832422,0.5026610063681634,9.71445146547012e-17,0.6580837607567979,0.4082543683371616,0.3978684915298816,0.8094298386633074,0.07251619711520951,0.9683593617057704,0.16269932131875287,0.5186876406450978,0.495819061519434,0.4685699586255385,0.0,6.661338147750939e-16,0.9274838028847894,0.08035317986760701
0.5320046425203797,0.4644279430695728,0.030273990866684253,0.0,0.33902824275590004,0.9006446387383775,0.5076380367512618,0.0,0.4954552074974302,0.34997957007592473,0.45051340145494273,0.8166408363273838,0.07251619711522422,0.9696640551752983,0.16876869275733242,0.5787642885597108,0.5025244913825784,0.4586903928333852,0.0,4.440892098500626e-16,0.9274838028847876,0.08035317986760701
0.5272074271474638,0.47974073122585503,0.02888778123879232,0.0,0.34407126849191494,0.8565697574886979,0.5135427231470813,0.0,0.4458078994014071,0.2361708486332023,0.4178355772494924,0.8283932794221229,0.07251619711522422,0.9710530940188836,0.22904130415333945,0.6241603135106146,0.5634392711174172,0.4523379700925112,0.0,4.440892098500626e-16,0.9274838028847867,0.08035317986760701
0.5208444070685687,0.4934162214015798,0.02786641594241035,0.0,0.3503959463391922,0.8266559381776611,0.5185261564583538,9.71445146547012e-17,0.49674097127335054,0.17941562098252312,0.3733643312886846,0.8313521019596815,0.07251619711520951,0.9720765100951673,0.279592674367537,0.6394237597411347,0.6119263047158192,0.4471254205498294,0.0,4.440892098500626e-16,0.9274838028847876,0.08035317986760701
0.5124608863477713,0.510867741673834,0.026883870154042255,0.0,0.36665733053192984,0.810719315556061,0.5241694101062118,9.71445146547012e-17,0.5972489959457923,0.22926112305087687,0.367453577473814,0.8177046069375056,0.07251619711520951,0.9730610200534101,0.29028429183815874,0.63353725542596,0.6167047379076314,0.43712360597074174,0.0,6.661338147750939e-16,0.9274838028847894,0.08035317986760701
0.5057094238802107,0.5257588452744366,0.026184595803180777,0.0,0.38122312469324915,0.8053100501827425,0.5278868589057337,9.71445146547012e-17,0.6416462351310332,0.3205245465832123,0.37191279766559554,0.8018495677960118,0.07251619711520951,0.9737617241245703,0.2795333843056387,0.6200348956064197,0.6092664867390729,0.427392579446491,0.0,6.661338147750939e-16,0.9274838028847894,0.08035317986760701
0.5002112737092295,0.5395587625925271,0.02554944657572633,0.0,0.3909517825819208,0.7983798781181566,0.5300014002939744,0.0,0.5994389048643026,0.4004045927128854,0.35441700105485224,0.7917428314679658,0.07251619711520951,0.9743982259644945,0.2760342829397153,0.6089663615038923,0.6252133861421543,0.4188980360480574,0.0,4.440892098500626e-16,0.9274838028847867,0.08035317986760701
0.4964464488915918,0.5522782051808139,0.024901970686778907,0.0,0.4041646637962464,0.7884004142012164,0.531452941535785,0.0,0.5264856364010864,0.46030764358597,0.34009887000710726,0.7826293823850117,0.07251619711520951,0.9750470754732602,0.279302069557108,0.5995872094405179,0.6557547292799759,0.4113463946921003,0.0,4.440892098500626e-16,0.9274838028847876,0.08035317986760701
0.49565332592285033,0.5632912208832553,0.02422111758052159,0.0,0.431105606527738,0.7758601991898473,0.5332797702868106,9.71445146547012e-17,0.51026355706508,0.49772059411175423,0.36279966861315477,0.7679284424024555,0.07251619711520951,0.9757292864509344,0.2821085314958012,0.589345889779036,0.6805726628024926,0.4045821541177732,0.0,4.440892098500626e-16,0.9274838028847876,0.08035317986760701
0.4980871130677998,0.5741603633317066,0.023592343985156528,0.0,0.45997805488579213,0.7614484008621368,0.5347061025267247,9.71445146547012e-17,0.5333884153792814,0.5314254105414741,0.3719976769967919,0.7550461000523025,0.07251619711520951,0.9763592840157357,0.28001021001468196,0.5784793881280308,0.701236107463834,0.3987563742268012,0.0,4.440892098500626e-16,0.9274838028847876,0.08035317986760701
0.5035856881551366,0.5887388847480872,0.02294958269241698,0.0,0.4849884295687008,0.7427990409796839,0.5353131403300472,9.71445146547012e-17,0.5549210977608713,0.5739596484172,0.33128963118801064,0.7487820336145221,0.07251619711520951,0.977003334844012,0.27482252258926465,0.5663202548730659,0.7295727552013718,0.39303940240505053,0.0,6.661338147750939e-16,0.9274838028847894,0.08035317986760701
0.5122415180653903,0.6066471040773146,0.02228560675206326,0.0,0.5127217542601825,0.7191548545135196,0.5357236555985719,9.71445146547012e-17,0.5611854775481934,0.5592952410318001,0.30153847610216516,0.7481293247063787,0.07251619711520951,0.9776686970138768,0.2851375477617406,0.5567713649914481,0.7684799855345004,0.3897128789013147,0.0,6.661338147750939e-16,0.9274838028847894,0.08035317986760701
0.5238748410163918,0.6265574965160245,0.021594440255699898,0.0,0.5482982851733068,0.6913176565853161,0.5368317936860763,9.71445146547012e-17,0.5521468761672907,0.4262190267841017,0.3421109146853355,0.7492435441297784,0.07251619711520951,0.9783613480867783,0.32169893134912364,0.5558540791617617,0.8137302811804048,0.3903670450151031,0.0,4.440892098500626e-16,0.9274838028847876,0.08035317986760701
0.5357726697926786,0.644747286731082,0.020933534754116523,0.0,0.5726143872602663,0.6685183543401909,0.5392098365730381,9.71445146547012e-17,0.5616202820333438,0.23751603737337712,0.39292631449717175,0.7436206775099681,0.07251619711520951,0.9790236374483239,0.3397436947678365,0.5728908229527434,0.8347638568898557,0.3906423679949018,0.0,2.220446049250313e-16,0.9274838028847858,0.08035317986760701
0.5446000622288838,0.6578204567549294,0.02039891590439258,0.0,0.5723172388973959,0.6577063525079165,0.5423605163478932,9.71445146547012e-17,0.5946910259289615,0.10049768140431448,0.39443176660034085,0.7300960665049665,0.07251619711522422,0.9795593031841869,0.31401673899564386,0.6049206213841352,0.8197179991481622,0.38772023029606384,0.0,4.440892098500626e-16,0.9274838028847867,0.08035317986760701
0.5527279271936711,0.6737797021522625,0.0197813342689096,0.0,0.5558869008940127,0.649866786604386,0.5457936303920891,0.0,0.5604754364822608,0.08875126140925865,0.36613376605003595,0.7203734977906571,0.07251619711520951,0.9801780974176341,0.2851191761932661,0.6443956197136878,0.8064961939664901,0.3851596653119733,0.0,4.440892098500626e-16,0.9274838028847876,0.08035317986760701
0.5589439623604942,0.6967647002673993,0.01907243641307832,0.0,0.5355044884466137,0.6371901975771672,0.5473374492913137,9.71445146547012e-17,0.3548541728600708,0.3284046339906792,0.34029943619955355,0.7331868229015752,0.07251619711520951,0.9808885016220114,0.3153731060806013,0.6642547767632472,0.8462768355497579,0.38885346365273943,0.0,4.440892098500626e-16,0.9274838028847876,0.08035317986760701
0.5631006438409016,0.7179004108018602,0.018477984688574645,0.0,0.5270634375842645,0.6184456207873825,0.5474164667402001,9.71445146547012e-17,0.2659747427661058,0.47771331556011015,0.3318948322082678,0.7393208283397499,0.07251619711520951,0.9814842156670951,0.34525516531025957,0.6589759204647478,0.8797716279279024,0.3919748863908499,0.0,4.440892098500626e-16,0.9274838028847867,0.08035317986760701
0.5690433456871282,0.7433954286982779,0.017739275913271513,0.0,0.5317123411534671,0.584920867955693,0.5472835211094631,9.71445146547012e-17,0.4420783152249562,0.3728940185318081,0.33523022353856224,0.7199907803470174,0.07251619711520951,0.9822243908192013,0.3394625388825059,0.6371157353872619,0.8772129294420017,0.39098045368247636,0.0,2.220446049250313e-16,0.9274838028847858,0.08035317986760701
0.5760714324147576,0.7629261250763651,0.017119436295648383,0.0,0.5380132239037738,0.561009754865543,0.5473872611977643,9.71445146547012e-17,0.5935310595139197,0.2654192363304331,0.33870997183495216,0.7081408228271471,0.07251619711522422,0.9828454460762949,0.34493533300453905,0.6343633026831341,0.8818672856474903,0.39253452642102094,0.0,4.440892098500626e-16,0.9274838028847876,0.08035317986760701
0.5886384407956475,0.7847703504346161,0.016317833244670843,0.0,0.5365248238312126,0.5474249428220678,0.5482016710489143,9.71445146547012e-17,0.5345107433742453,0.34900721510897226,0.33601416186310934,0.7252118412980479,0.07251619711520951,0.9836486939723221,0.41064332709548346,0.669472140705679,0.9404041110624641,0.40352848722236523,0.0,6.661338147750939e-16,0.9274838028847894,0.08035317986760701
0.6011248737880708,0.8003801558801419,0.015614870105154721,0.0,0.5258019125441251,0.5395651735602827,0.5500564664347826,9.71445146547012e-17,0.4201836961790899,0.4384607745408639,0.3441945299969282,0.7386654042483354,0.07251619711520951,0.9843531430404524,0.45835638634004816,0.6847090307978263,0.9839979716103064,0.41196155632210196,0.0,4.440892098500626e-16,0.9274838028847876,0.08035317986760701
0.6120380105200567,0.8107372778595859,0.01499028124689239,0.0,0.5095346663203486,0.5233704600030092,0.5531855601487424,9.71445146547012e-17,0.44345180288302255,0.34826911730958365,0.3740041965362903,0.7196100857235548,0.07251619711520951,0.9849790538080055,0.43302384419778406,0.6446974809343864,0.9630217658211242,0.41004488266590045,0.0,6.661338147750939e-16,0.9274838028847894,0.08035317986760701
0.6206864144914506,0.8166032214830787,0.014517420066732845,0.0,0.4971152534344416,0.5022037707532744,0.5564678306358504,9.71445146547012e-17,0.5187203328487655,0.246105754985216,0.39428026628068186,0.694746674770081,0.07251619711522422,0.9854528902135006,0.3927256281065006,0.6214038074367494,0.9257211513238728,0.40707825465567726,0.0,4.440892098500626e-16,0.9274838028847876,0.08035317986760701
0.6306476277102662,0.8218910449782957,0.014050522219040684,0.0,0.49122660861453105,0.4738109663535538,0.5602662746399124,9.71445146547012e-17,0.574129288678065,0.2737952497501256,0.38550382309240766,0.6830251409255856,0.07251619711520951,0.9859206989916954,0.3807617364871003,0.6699060757309567,0.9085879927160088,0.4112932351963776,0.0,4.440892098500626e-16,0.9274838028847876,0.08035317986760701
0.6392518932215159,0.8285989646044377,0.013706276504810488,0.0,0.49276451119006526,0.45785332215239294,0.5632143638297945,9.71445146547012e-17,0.613242902589315,0.416890650218697,0.3656036946950666,0.6898132080908352,0.07251619711520951,0.9862655948879089,0.3900751118183674,0.7287522054602533,0.9166960964278461,0.418725348030617,0.0,4.440892098500626e-16,0.9274838028847876,0.08035317986760701
0.6455176357995951,0.8382387071451833,0.013474594336712609,0.0,0.49565575732756834,0.4620661654162497,0.5648748807915761,0.0,0.6608298388746277,0.5659126811317927,0.3585401438782828,0.7056288538072764,0.07251619711522422,0.9864977322613444,0.3933236268327036,0.7319111041944595,0.9315993929069473,0.42314657351572027,0.0,4.440892098500626e-16,0.9274838028847876,0.08035317986760701
0.6504496506101038,0.8516328859562141,0.01323240366603129,0.0,0.48895064063007704,0.4745349295101484,0.5653624970929667,9.71445146547012e-17,0.6775867209263556,0.6307142465460873,0.350819910662184,0.7284321203060165,0.07251619711520951,0.9867404380613102,0.38800747529365864,0.702966979194553,0.9407965195408599,0.4259785482635401,0.0,4.440892098500626e-16,0.9274838028847876,0.08035317986760701
0.6530533415461084,0.866312632977426,0.012913555122372355,0.0,0.4621040600224972,0.47834313393843725,0.5642968561332797,0.0,0.6043885112886335,0.5014263605700519,0.32994245579201026,0.7524872959529674,0.07251619711522422,0.9870599962754543,0.3789768524798287,0.6801494939029986,0.9322938888272985,0.4291181799213071,0.0,4.440892098500626e-16,0.9274838028847876,0.08035317986760701
0.6534561924529962,0.8774088605910415,0.012597517684386661,0.0,0.4402273354934309,0.47079698343027887,0.5629425423106545,9.71445146547012e-17,0.5352205648604567,0.40668200037700064,0.3275606692812816,0.7686009353632182,0.07251619711520951,0.9873767239200333,0.3864266853335341,0.6769420196387692,0.9316405938386803,0.4344826435046105,0.0,6.661338147750939e-16,0.9274838028847894,0.08035317986760701
0.6523734606374614,0.8879146785835341,0.012178318108751807,0.0,0.43420279559422004,0.4481947283048494,0.5619051080653563,9.71445146547012e-17,0.5238784034869026,0.4975538615507065,0.3672469303690542,0.7776487970031418,0.07251619711520951,0.9877967917002134,0.42526555418712775,0.689153333466372,0.9604310672836638,0.4457078541484254,0.0,4.440892098500626e-16,0.9274838028847876,0.08035317986760701
0.6506874859286984,0.8947447154662851,0.011807895681163916,0.0,0.4337111047521199,0.4174109543661347,0.5620297776433798,9.71445146547012e-17,0.5280370003418965,0.5528373249850516,0.39298389956638285,0.7699742048880553,0.07251619711520951,0.988167962807587,0.4442436814662436,0.6879558534004424,0.9803725412494577,0.45354690279325016,0.0,4.440892098500626e-16,0.9274838028847876,0.08035317986760701
0.6487478746838085,0.8997379883198993,0.011473908817392076,0.0,0.42322265851715707,0.3797974121604166,0.5631920611568728,0.0,0.4910705439618221,0.40590963153940973,0.37178292465497226,0.7497711410285293,0.07251619711522422,0.9885026311036941,0.4175215279222275,0.6579735008558245,0.9674836538935976,0.45465820016839054,0.0,4.440892098500626e-16,0.9274838028847867,0.08035317986760701
0.6457050587791358,0.902776860096298,0.01119652399513582,0.0,0.4090520451695338,0.3390963705559041,0.5647104229108889,9.71445146547012e-17,0.4411064819842334,0.24944882644022384,0.3452201156503772,0.7426074891765229,0.07251619711522422,0.9887805863803353,0.3839690705143788,0.6246784252034274,0.9453145448563474,0.4546744779133274,0.0,4.440892098500626e-16,0.9274838028847876,0.08035317986760701
0.6401805000909908,0.9036667603607466,0.01094289970668827,0.0,0.3969150177559489,0.29185870209541986,0.5662726258186659,9.71445146547012e-17,0.40028129340509583,0.2437729080004503,0.34861579352884775,0.7672870313884852,0.07251619711520951,0.98903473160857,0.3756511585612614,0.6065342397531914,0.9344136947783701,0.4591593949023407,0.0,4.440892098500626e-16,0.9274838028847876,0.08035317986760701
0.6338644206307797,0.9008122957980564,0.01073281411463134,0.0,0.39103139639162726,0.2522963413016859,0.567657283617313,9.71445146547012e-17,0.3625557375488345,0.29757742368279416,0.3614105819139654,0.7954080396546441,0.07251619711522422,0.9892452457850891,0.3834788836646279,0.5985127526295528,0.9335677221566074,0.4660669129543802,0.0,4.440892098500626e-16,0.9274838028847876,0.08035317986760701
0.6283964611524453,0.8929502666718836,0.010531393526128308,0.0,0.39265937206953794,0.2271088480155128,0.568948218554886,9.71445146547012e-17,0.3261974508832798,0.2579916298677143,0.3517953809870181,0.7932258612336964,0.07251619711520951,0.9894470748337852,0.38567240562490035,0.5857986314994577,0.9329989259352454,0.47244775717261067,0.0,4.440892098500626e-16,0.9274838028847876,0.08035317986760701
0.6255326359058404,0.883865289166673,0.010314538635826653,0.0,0.40001058356712277,0.20745721628600472,0.5697931496777685,9.71445146547012e-17,0.38695309885977625,0.18258270376353347,0.33854701226809236,0.7787339090266414,0.07251619711520951,0.9896643777535375,0.3832751262688081,0.5729186181168124,0.9297993472414285,0.47823001434528045,0.0,4.440892098500626e-16,0.9274838028847876,0.08035317986760701
0.6250905793298214,0.8757964251352705,0.01003508950623122,0.0,0.4107286861852887,0.18091064865564788,0.57017441848578,0.0,0.575677467607086,0.151550052299937,0.3424556082728549,0.7748307353111699,0.07251619711520951,0.9899444115000864,0.3822995244490457,0.5625796207686946,0.9234647095068427,0.4849076973886355,0.0,4.440892098500626e-16,0.9274838028847876,0.08035317986760701
0.6257223996950303,0.8686353568943477,0.009740132219602238,0.0,0.4224228814258043,0.15909754271723997,0.5703135702534867,0.0,0.6846827035080123,0.1722983324014889,0.35670623281453884,0.7775611237684812,0.07251619711520951,0.9902399603638524,0.38326176512809873,0.5472532584961343,0.9157600216062542,0.4909305250062532,0.0,4.440892098500626e-16,0.9274838028847876,0.08035317986760701
0.6261830180824952,0.8588352531137363,0.009355729287062298,0.0,0.43713896566328825,0.1469811503212522,0.5705624860801464,0.0,0.5600377249014551,0.24597772359773626,0.37570791569050266,0.7787324343039561,0.07251619711520951,0.9906250824962594,0.38539812133817186,0.5188008319131185,0.9057955102580584,0.4973174493671273,0.0,4.440892098500626e-16,0.9274838028847876,0.08035317986760701
0.6249252518556445,0.8491035475661453,0.00899664207600015,0.0,0.4454273755899261,0.14220195543291586,0.5712751372867286,9.71445146547012e-17,0.4438622672080261,0.2952411857353476,0.3810960167713979,0.7678224403725586,0.07251619711520951,0.9909848730881475,0.3834179234601436,0.5222080784737315,0.9000253404976659,0.5041609240831564,0.0,4.440892098500626e-16,0.9274838028847876,0.08035317986760701
0.621772157846469,0.8397339282369747,0.008673695561818962,0.0,0.4447457662276277,0.1342793933529305,0.5724877131776036,9.71445146547012e-17,0.5379913028243452,0.27632055824257606,0.36980934582887,0.7441451726383033,0.07251619711520951,0.9913085320726037,0.37716695463728733,0.5741724413460574,0.8997387114404587,0.512926631517856,0.0,6.661338147750939e-16,0.9274838028847894,0.08035317986760701
0.6184310846526837,0.8298608264071852,0.008400714101076123,0.0,0.4380356920385293,0.12140760409369233,0.5735015576289297,9.71445146547012e-17,0.6686947369752001,0.21492145977552066,0.3593996058712167,0.7236758321085244,0.07251619711520951,0.9915821211670556,0.37962586471268267,0.6292602842801429,0.9008460679036228,0.5227890844312899,0.0,4.440892098500626e-16,0.9274838028847876,0.08035317986760701
0.6155714360844278,0.8138729302453497,0.008122935554333521,0.0,0.42550888408222726,0.09760693831080675,0.5738748389511029,0.0,0.6670219399713886,0.1252510453155823,0.36378049992467437,0.7190525354143764,0.07251619711520951,0.991860429589624,0.40775626913638874,0.6518134871293739,0.898259790813337,0.5360455006459279,0.0,4.440892098500626e-16,0.9274838028847876,0.08035317986760701
0.6135636351749452,0.7945960733451455,0.00791976704624242,0.0,0.42009032205894326,0.07793994878867772,0.57419917161883,9.71445146547012e-17,0.5911548265582103,0.1239013334613901,0.3619112865787631,0.7248247664172158,0.07251619711520951,0.9920639532012935,0.4315756499315828,0.6413259912820024,0.8886796105871246,0.5459378311338021,0.0,4.440892098500626e-16,0.9274838028847876,0.08035317986760701
0.6112126964778344,0.7695707463280559,0.00772248552325927,0.0,0.42462235168916707,0.06557003715432097,0.5752877700817597,9.71445146547012e-17,0.552656485806233,0.24039868019363153,0.3383932568486854,0.7270155791327158,0.07251619711520951,0.992261625784122,0.4334589264658799,0.6276159526790686,0.8715463963987107,0.5529923676336601,0.0,6.661338147750939e-16,0.9274838028847894,0.08035317986760701
0.6100034698585943,0.7413719924051293,0.007542442311074815,0.0,0.4271627835819172,0.05709316945747356,0.5765372661767049,9.71445146547012e-17,0.5135627947361336,0.3801686998366874,0.32276104488922974,0.7262712242841385,0.07251619711520951,0.9924420505725448,0.4242128263296774,0.6160819021167327,0.8521558036710815,0.559020246345014,0.0,4.440892098500626e-16,0.9274838028847876,0.08035317986760701
0.6113131397799656,0.7148331886241468,0.007410155577306177,0.0,0.41715071030236106,0.04859765639846503,0.5771609961653814,9.71445146547012e-17,0.4317224257074105,0.445463007014395,0.342063105816584,0.7260975296318515,0.07251619711520951,0.992574611806967,0.4187668949980896,0.6069269106402153,0.8374889484642773,0.5654288278243147,0.0,4.440892098500626e-16,0.9274838028847876,0.08035317986760701
0.6126683926941696,0.6880441844231345,0.0072976345808646315,0.0,0.4090788375260392,0.038050588810524366,0.5775506245309375,0.0,0.37202180051388384,0.5294382420146377,0.35514776681836485,0.7295521608930535,0.07251619711520951,0.9926873595879037,0.41691346814612196,0.5908742941042995,0.8264815531094651,0.5721759345838926,0.0,4.440892098500626e-16,0.9274838028847876,0.08035317986760701
0.6119987883455686,0.6587209816421495,0.0071759191563792735,0.0,0.41841483518868366,0.02467637938002165,0.5781529192905558,9.71445146547012e-17,0.40920031009135566,0.7064199347642078,0.3237425397986117,0.7389520712726183,0.07251619711520951,0.9928093227736504,0.41476631859016955,0.5659397959589327,0.8159701380519637,0.5789419474765287,0.0,4.440892098500626e-16,0.9274838028847876,0.08035317986760701
0.6124051591852979,0.6316857842612505,0.0070710603934414085,0.0,0.43645032923501575,0.011845629899267296,0.5785053053553991,9.71445146547012e-17,0.5247104102940183,0.7895455855675644,0.2922455331335968,0.7520347473179534,0.07251619711520951,0.9929143977242186,0.4097427109419005,0.5657231450188789,0.8032420313621369,0.5853346643446731,0.0,4.440892098500626e-16,0.9274838028847876,0.08035317986760701
0.6179966646146551,0.5987415709296626,0.006954991563235868,0.0,0.4604497901091377,0.0,0.5781944716479649,9.71445146547012e-17,0.7271846086924217,0.6401705332281449,0.2976155286695997,0.7728371630438673,0.07251619711520951,0.9930307070960075,0.40035564649527977,0.6224577576315014,0.782232693105775,0.5946804643908425,0.0,6.661338147750939e-16,0.9274838028847894,0.08035317986760701
0.6252367686222196,0.574455530115553,0.006843390200714006,0.0,0.47559943402154076,0.005113539465535721,0.5776065970484584,9.71445146547012e-17,0.8137802581842231,0.5375673075797843,0.32266960077265294,0.7893250935021454,0.07251619711520951,0.9931425341100938,0.403578214647327,0.6727518986556156,0.7742811340641698,0.6038555972206217,0.0,4.440892098500626e-16,0.9274838028847876,0.08035317986760701
0.6348409948074021,0.5480436005824645,0.00665219896707836,0.0,0.4847848826600726,0.03582573191169891,0.5769201095758616,9.71445146547012e-17,0.7300924804937723,0.6703483744200414,0.34811147062800424,0.8036158281486099,0.07251619711520951,0.9933341073009235,0.4296155660667704,0.6911937658514837,0.7842687144719545,0.6167426446773243,0.0,4.440892098500626e-16,0.9274838028847876,0.08035317986760701
0.6432183927599886,0.5252778047090827,0.006446636280609042,0.0,0.4838964331269424,0.06834391260614592,0.5764359439419018,9.71445146547012e-17,0.6063812252551198,0.8558253837545793,0.3544262993383812,0.8059017759651752,0.07251619711520951,0.9935401004508183,0.45232800666643946,0.6841835284771811,0.7896511592307469,0.6268674754374945,0.0,4.440892098500626e-16,0.9274838028847876,0.08035317986760701
0.6524662646193029,0.49720968429494383,0.006187188554558687,0.0,0.47541936268285984,0.09509926257961332,0.5761365282390769,0.0,0.5479631784418565,0.9406766563228179,0.3399246089919162,0.7970725221335915,0.07251619711520951,0.9938001276935261,0.4575238119236662,0.6727090893005645,0.7721708158892904,0.6346858433552836,0.0,4.440892098500626e-16,0.9274838028847867,0.08035317986760701
0.6614314451339207,0.4691360619954359,0.00592513702952191,0.0,0.4724195817583377,0.11471654426238032,0.5765436719893077,9.71445146547012e-17,0.5931113453471208,0.8697900689063346,0.32166544178471057,0.79840644473071,0.07251619711520951,0.9940627674005144,0.4467146574260994,0.6586545388802207,0.7459341293670505,0.6396874902590666,0.0,4.440892098500626e-16,0.9274838028847876,0.08035317986760701
0.6712475521032808,0.44091450968385404,0.005655195970363236,0.0,0.48563605247953734,0.13620670896270692,0.5780830584453898,9.71445146547012e-17,0.7078494240217824,0.6794186529624506,0.3185831764405034,0.8282527989769672,0.07251619711520951,0.9943332797579766,0.43219234498221404,0.6401339815114042,0.7293044695019208,0.6446635094901243,0.0,4.440892098500626e-16,0.9274838028847876,0.08035317986760701
0.6798852233780042,0.4195179665936135,0.0054472787169089765,0.0,0.49840280241537493,0.15602855712190983,0.5797934903295612,9.71445146547012e-17,0.7059988145662874,0.5929613931963246,0.33090262686580524,0.8526475925567398,0.07251619711520951,0.9945416042086795,0.43650591085318524,0.6331776652158894,0.7297301531655576,0.6517852265792499,0.0,4.440892098500626e-16,0.9274838028847876,0.08035317986760701
0.6897067435714912,0.39949094529229434,0.005253817466399191,0.0,0.4988359193327078,0.18226702339530793,0.5815278558165804,9.71445146547012e-17,0.4740537204727337,0.7136619932575624,0.3538939673468507,0.8513850428775287,0.07251619711520951,0.9947354099694646,0.47064531533839116,0.6435576626174573,0.7432713421805959,0.6648498549274375,0.0,4.440892098500626e-16,0.9274838028847876,0.08035317986760701
0.6972927876586927,0.3861911686333557,0.00513451865784087,0.0,0.48776050815691296,0.21889138465731456,0.5829198954883797,9.71445146547012e-17,0.30119340701337416,0.7717923708346905,0.35741317689277297,0.8419691817517503,0.07251619711520951,0.9948549048558898,0.48644066903892025,0.64518343889522,0.7422092343188247,0.6744111633168179,0.0,4.440892098500626e-16,0.9274838028847876,0.08035317986760701
0.702159669805442,0.37874407370131413,0.005078521424771831,0.0,0.4738502923431718,0.2676034422292927,0.5840139437163411,0.0,0.37103675728129754,0.5798598242556728,0.3312356424546909,0.8450859126046248,0.07251619711520951,0.9949109974521201,0.4570856931232825,0.6204101773234854,0.7133914910224144,0.6759024222253007,0.0,4.440892098500626e-16,0.9274838028847876,0.08035317986760701
0.7063159113070894,0.3754853002073473,0.005041657117524911,0.0,0.46455191544288005,0.32044173764980016,0.5843908143001533,9.71445146547012e-17,0.47071069757156014,0.3261627951422787,0.30476364024643676,0.850918603156968,0.07251619711520951,0.9949479565458842,0.41831221256409634,0.5826729835066864,0.6790779048539788,0.6752353604521604,0.0,4.440892098500626e-16,0.9274838028847876,0.08035317986760701
0.7125339191804767,0.37616502073780456,0.004978398980937104,0.0,0.46640459058116635,0.37567882131498354,0.5833515990383339,0.0,0.37814394687851594,0.21639484159828068,0.30832531122117923,0.8470004497835699,0.07251619711522422,0.9950114164145912,0.40607644509188034,0.5477820897652101,0.6603960564654718,0.679215195214911,0.0,4.440892098500626e-16,0.9274838028847876,0.08035317986760701
0.719650651620996,0.3780129907802041,0.004903759722892809,0.0,0.46764645587479886,0.41717374316467526,0.5821677147760637,0.0,0.3215963993435539,0.285204110879116,0.32023162605557814,0.8409559934183344,0.07251619711520951,0.9950862361495761,0.40928175158745006,0.5576616788404785,0.6551072026663443,0.6865236095429266,0.0,4.440892098500626e-16,0.9274838028847876,0.08035317986760701
0.727461873527147,0.3786657247084997,0.004822499212919884,0.0,0.4589521934069788,0.45222082276922926,0.5818142420065968,9.71445146547012e-17,0.4667956100038647,0.4149518106771022,0.3150744918645238,0.841288504690251,0.07251619711520951,0.9951676103877592,0.4032629291902907,0.6107642668169575,0.6471138280841133,0.6943292391586366,0.0,6.661338147750939e-16,0.9274838028847894,0.08035317986760701
0.7365489633151909,0.38031785984784583,0.004705183489148723,0.0,0.4491253784938693,0.4863613895635447,0.5818650722630381,9.71445146547012e-17,0.6039134905764014,0.5776507511367779,0.30445819932791,0.8455498225771327,0.07251619711520951,0.9952851191608071,0.39695442914087486,0.6657370941241254,0.6386466593160547,0.7025413698926286,0.0,4.440892098500626e-16,0.9274838028847876,0.08035317986760701
0.7475226205286816,0.3866184507600533,0.004511322447300015,0.0,0.44705998099115357,0.5241026337958613,0.5818868651775911,0.0,0.468862106797216,0.7422893406583048,0.3061523018186445,0.8512536728037059,0.07251619711520951,0.9954794329834679,0.4002253362492567,0.6708962350367074,0.6326091387596646,0.710542640893288,0.0,4.440892098500626e-16,0.9274838028847867,0.08035317986760701
0.7554431364207674,0.3946068762860957,0.00435386397074311,0.0,0.43886817907736214,0.558409547944487,0.582051526427039,9.71445146547012e-17,0.30302795668691695,0.7639302439161064,0.32055159310992865,0.856854900043019,0.07251619711520951,0.9956372579060945,0.38913231632709433,0.6414076395764461,0.6196042742793306,0.7132690941468578,0.0,4.440892098500626e-16,0.9274838028847867,0.08035317986760701
0.7622298964168668,0.40440221767661266,0.004223209668534511,0.0,0.41185274048908815,0.6007273146488,0.5825785574190099,9.71445146547012e-17,0.27500351054235134,0.6399252535059541,0.3433081520741109,0.8662231073548874,0.07251619711520951,0.9957681387858882,0.34883399587851116,0.6031481655198512,0.5901945399039965,0.7118475134549662,0.0,4.440892098500626e-16,0.9274838028847876,0.08035317986760701
0.7676267191797026,0.41190700404297365,0.004119318835653529,0.0,0.3841766552738951,0.6286546845631018,0.583179951635876,0.0,0.3529651603139363,0.555578405491603,0.35379901250976553,0.883445846586703,0.07251619711522422,0.9958721834710681,0.31980970790140084,0.5803407955216606,0.565737462382728,0.7122784428128126,0.0,6.661338147750939e-16,0.9274838028847894,0.08035317986760701
0.7753958261430873,0.4172198032878338,0.003972100505184706,0.0,0.3664783053573118,0.6297490387444721,0.5838695567315101,9.71445146547012e-17,0.4717190908650972,0.673637808496549,0.3346881374945096,0.9229452667956544,0.07251619711520951,0.9960196916389473,0.3382253584343573,0.5839905697333734,0.5602191610541638,0.7225890667008246,0.0,6.661338147750939e-16,0.9274838028847894,0.08035317986760701
0.7833568429992412,0.4209275704669786,0.003868233984155811,0.0,0.3681798176091612,0.6179362560897158,0.5844796889052979,0.0,0.43779041423182846,0.7302170969188777,0.31648345184957866,0.9518266550046066,0.07251619711520951,0.9961237824611794,0.36701628816863874,0.5947334789152734,0.5659939576639781,0.732816125912116,0.0,4.440892098500626e-16,0.9274838028847876,0.08035317986760701
0.7953847243084524,0.4285484933679663,0.003771910044948923,0.0,0.38084435151385165,0.6120572267040563,0.5854136136878175,9.71445146547012e-17,0.21127610306872474,0.5694537235052579,0.3154273330747011,0.968270004884797,0.07251619711520951,0.9962202983739982,0.3768979494368683,0.5928216143689831,0.5662069827255065,0.7402912641608088,0.0,6.661338147750939e-16,0.9274838028847894,0.08035317986760701
0.8074536406851283,0.4393330906277896,0.0036700562977949325,0.0,0.3943467584052396,0.6229728983354166,0.5862606104721911,9.71445146547012e-17,0.09817058753002922,0.44215750994174846,0.32563501516164856,0.9670680931708082,0.07251619711520951,0.9963223659498036,0.35692695679081154,0.571800731361968,0.5502858675483955,0.7420452093740906,0.0,4.440892098500626e-16,0.9274838028847876,0.08035317986760701
0.8175731061590752,0.45329588076153426,0.003524626559642474,0.0,0.40084790271861287,0.6539445990700492,0.5866829779256433,9.71445146547012e-17,0.3457044932874115,0.5900684664292064,0.3335696108496052,0.9523856764069567,0.07251619711520951,0.9964681397599636,0.31494760756624274,0.5354467739809401,0.5168839723495502,0.7395192393650021,0.0,4.440892098500626e-16,0.9274838028847876,0.08035317986760701
0.827836208497766,0.4718801048651946,0.003334180490493499,0.0,0.4041805188392683,0.6904891102802324,0.5865559280570136,9.71445146547012e-17,0.623999688143559,0.7539835419906002,0.3348119408389273,0.935416520314452,0.07251619711522422,0.9966590293603818,0.2933938976485546,0.5118665402429343,0.4973414037715731,0.7404868441517376,0.0,4.440892098500626e-16,0.9274838028847876,0.08035317986760701
0.8418122203854208,0.4981610418994895,0.003088208505681589,0.0,0.40971816764014085,0.7198399082353274,0.5858888184309954,0.0,0.6059296744882877,0.6383103997962294,0.3291055846091263,0.9226707273568717,0.07251619711522422,0.9969055274561455,0.3224068775332789,0.5207687898367972,0.5149300827061314,0.7512458497792371,0.0,0.0,0.9274838028847849,0.08035317986760701
0.8540103921956508,0.52168666173185,0.002881131752493382,0.0,0.41212851532009465,0.73093076674005,0.5852592296513245,9.71445146547012e-17,0.5228976313422266,0.35392969409049047,0.3250831148768466,0.9051150474891374,0.07251619711520951,0.9971130057921428,0.34107897376743423,0.5272016534182029,0.5255655149604523,0.7599503723156564,0.0,4.440892098500626e-16,0.9274838028847876,0.08035317986760701
0.8620937436892075,0.5376714933659416,0.0027460942127869314,0.0,0.40861422752019355,0.7250875747245116,0.585175448499963,9.71445146547012e-17,0.61147223735459,0.09073433873912823,0.32982602935422006,0.8761379987788613,0.07251619711520951,0.9972482645372781,0.3060579398074861,0.5018167806762364,0.49677984844400314,0.7587193106750636,0.0,6.661338147750939e-16,0.9274838028847894,0.08035317986760701
0.8688635005792658,0.5477924805482951,0.002650771364928861,0.0,0.40729829320131195,0.7127915221732446,0.5859886103952004,9.71445146547012e-17,0.6811444318080593,0.012323160143580092,0.34309469399884934,0.8580170545922741,0.07251619711520951,0.9973437380406142,0.2755258771642488,0.4690454842005991,0.4702829842223428,0.7572633259652619,0.0,4.440892098500626e-16,0.9274838028847876,0.08035317986760701
0.8792594144704309,0.5565788535015912,0.002533889974405179,0.0,0.4142517406660362,0.6982588195145172,0.5880983818459463,9.71445146547012e-17,0.5595012986176879,0.19889735398040115,0.36499519117760554,0.8654190203577468,0.07251619711520951,0.9974608490189915,0.2883587719004872,0.44738234510026587,0.4739777616780172,0.7635891287059229,0.0,4.440892098500626e-16,0.9274838028847876,0.08035317986760701
0.8891363010773465,0.5599965810015645,0.0024363528726969452,0.0,0.417520342413902,0.6820098404430707,0.5897446694317547,9.71445146547012e-17,0.4343622688498961,0.3712580651762225,0.37167353883895704,0.8781878707035284,0.07251619711520951,0.9975585955909004,0.2707709812144685,0.448455347818836,0.46267788835318857,0.7656601384337511,0.0,4.440892098500626e-16,0.9274838028847876,0.08035317986760701
0.8983077640311181,0.5567775122200752,0.0023551374492644106,0.0,0.40688679075782075,0.6562817389432269,0.5899855012181725,9.71445146547012e-17,0.4701495023135964,0.3246893868070992,0.3492521454078071,0.8764788706311792,0.07251619711520951,0.9976399802272599,0.17232343442151965,0.47343655362927706,0.40164954329708014,0.7566967166557133,0.0,4.440892098500626e-16,0.9274838028847876,0.08035317986760701
0.9061439750406581,0.5480337331941771,0.002291580535702331,0.0,0.39292173441632433,0.6270444888489872,0.5894821420674659,9.71445146547012e-17,0.5245784234780742,0.2909163480155559,0.3214962397798096,0.8738103355836122,0.07251619711520951,0.9977036643736908,0.20992518149729555,0.52172340030031,0.4184059691461046,0.7681660759799103,0.0,4.440892098500626e-16,0.9274838028847876,0.08035317986760701
0.9140960255940105,0.5359413559106777,0.0022306293066816085,0.0,0.3874571319549807,0.5996316158732373,0.5893018468800135,0.0,0.4279058401721607,0.5112193357975396,0.31505907339759703,0.8856241318903715,0.07251619711522422,0.9977647394406787,0.5318093609959345,0.5831619610329106,0.6023012688004217,0.8219889511483824,0.0,4.440892098500626e-16,0.9274838028847867,0.08035317986760701
0.9211227395668189,0.5240106210670433,0.0021922426004074014,0.0,0.3857003338828499,0.5840018375932496,0.589102434622375,9.71445146547012e-17,0.32532517608085226,0.6623961880911607,0.32560800920777966,0.8907007602505104,0.07251619711520951,0.9978032057201754,0.7362113282377347,0.6039206492384004,0.7243551791995779,0.8567509544117176,0.0,4.440892098500626e-16,0.9274838028847876,0.08035317986760701
0.9281312311858589,0.5094432669014828,0.00218208650049434,0.0,0.3755440177357159,0.5797820588373653,0.5882962110533706,9.71445146547012e-17,0.343094005889751,0.4603400865195896,0.34451145478651557,0.8693985965661604,0.07251619711520951,0.9978133839171123,0.5106672841626647,0.5471739721416036,0.6064271693837782,0.8264108423347638,0.0,6.661338147750939e-16,0.9274838028847894,0.08035317986760701
0.9301665757661848,0.49281427987708304,0.0021872607581157055,0.0,0.34281640381630485,0.5712127633132724,0.5874803315942566,9.71445146547012e-17,0.3991977766011058,0.17620909943636903,0.3469895657722233,0.8470847333937996,0.07251619711520951,0.9978081977636301,0.20596360327710528,0.4840027568643208,0.43725222764247373,0.7838711125775744,0.0,4.440892098500626e-16,0.9274838028847876,0.08035317986760701
0.9267982540617088,0.47289639841432773,0.0021883825734393403,0.0,0.288327842817486,0.5471993048512667,0.5871400166273223,9.71445146547012e-17,0.396656753123923,0.08235134540533445,0.3273147138335778,0.8437463940664367,0.07251619711520951,0.9978070702445693,0.14866907299250975,0.46900767056915527,0.39851523165684366,0.7789775819163083,0.0,4.440892098500626e-16,0.9274838028847876,0.08035317986760701
0.9201474085556296,0.44623450308696566,0.002198718995386373,0.0,0.2272473909338711,0.5158513752267242,0.5874405275099982,9.71445146547012e-17,0.3852819682243394,0.13315703914231197,0.30726602783603385,0.8494313942392404,0.07251619711520951,0.9977967160636846,0.20283292099474615,0.4662416470253028,0.41535634158530943,0.7909379504684351,0.0,4.440892098500626e-16,0.9274838028847867,0.08035317986760701
0.9144356780685698,0.41624216457552077,0.0022366913995991444,0.0,0.1971102821815336,0.4973339219191185,0.588586228979171,9.71445146547012e-17,0.4299100010325214,0.2587339714351682,0.3186546585806334,0.8508795720868667,0.07251619711520951,0.997758687844703,0.18256214574436846,0.43475552355010194,0.38898354047474726,0.7901418284995803,0.0,4.440892098500626e-16,0.9274838028847876,0.08035317986760701
0.912150430710132,0.38858245655922385,0.0022817164879648244,0.0,0.1862929625449551,0.4878998738725318,0.5897949296887699,0.0,0.4530871121603565,0.371057288693097,0.33713706719332653,0.8511110462464098,0.07251619711522422,0.9977135985401656,0.14707938603027237,0.41071298941093204,0.36083977518105304,0.7870489499623279,0.0,4.440892098500626e-16,0.9274838028847867,0.08035317986760701
0.9122309134329354,0.3569704773213921,0.00233119955363581,0.0,0.17249677916177253,0.4764749697252588,0.5908299154989923,9.71445146547012e-17,0.41573494256075344,0.45171930998339693,0.3437388935205917,0.8550378179483165,0.07251619711522422,0.997664044089004,0.16147044419779277,0.4156684043197103,0.36718095458198796,0.7935190215641184,0.0,4.440892098500626e-16,0.9274838028847867,0.08035317986760701
0.9105277634393227,0.32576681001613017,0.0023885271866973534,0.0,0.15796985381352924,0.46561885673887426,0.5913411842052098,0.0,0.4284086986210087,0.4347347126923148,0.33480457688368026,0.8614569066702211,0.07251619711520951,0.9976066190489336,0.19939827276125577,0.43107815868349775,0.3863326320497942,0.804317881822163,0.0,4.440892098500626e-16,0.9274838028847876,0.08035317986760701
0.9024726796681328,0.30218381763572166,0.0024513696717164413,0.0,0.14887955314135742,0.46147311993042495,0.5910113090008814,0.0,0.5876411763119684,0.3024165547937747,0.3162421402177469,0.8666867276819277,0.07251619711522422,0.9975436481960939,0.20939318885384672,0.4274445664208244,0.38195055092290886,0.8094177228800516,0.0,0.0,0.9274838028847849,0.08035317986760701
0.88966055875632,0.28296713811626883,0.002501714643562969,0.0,0.13802423196653113,0.46645438077610646,0.5898849371619528,9.71445146547012e-17,0.667640181168802,0.2733346964546912,0.3058707259154642,0.8686106923082946,0.07251619711520951,0.9974931998216449,0.2000254113032831,0.4139997675618936,0.3662506829213754,0.810707289834605,0.0,4.440892098500626e-16,0.9274838028847876,0.08035317986760701
0.8740148768048972,0.2634409208706041,0.0025177014034236667,0.0,0.11818290649941726,0.4805581922380885,0.5881518979627297,0.0,0.4900470102462943,0.5082057692973866,0.31618623663712064,0.8656154879047095,0.07251619711522422,0.9974771922009295,0.1918519660801543,0.40473358109561985,0.3584337271780944,0.8123420785011071,0.0,2.220446049250313e-16,0.9274838028847858,0.08035317986760701
0.8541504090402019,0.243117425207392,0.002471026495046491,0.0,0.09439470151884144,0.4970496674957531,0.5864248043578613,9.71445146547012e-17,0.3388998482057499,0.7484211312689769,0.3316021971461255,0.8559932674570705,0.07251619711520951,0.9975239508093255,0.19607051365343864,0.3968249619649171,0.36089942524646723,0.8161120189560185,0.0,4.440892098500626e-16,0.9274838028847876,0.08035317986760701
0.8304331720100786,0.22402935318153228,0.002358983266524506,0.0,0.07422654873179368,0.5099535020497239,0.5854100726742291,0.0,0.47827514333456034,0.7295959325618933,0.3357292617801529,0.8412650543249747,0.07251619711522422,0.9976361663456864,0.21629605269626317,0.3910717620150379,0.36997133495710965,0.8224229610535359,0.0,4.440892098500626e-16,0.9274838028847867,0.08035317986760701
0.8011827087537235,0.20433610815452719,0.0022313002439736662,0.0,0.05199417764930114,0.5308473377681222,0.5851971357014212,0.0,0.671783193085921,0.5998822921753091,0.34112306018912314,0.82847962989681,0.07251619711520951,0.9977640680994914,0.2447017255487598,0.41797187022688576,0.3789834565214987,0.8316694587907847,0.0,6.661338147750939e-16,0.9274838028847894,0.08035317986760701
0.7711965215228564,0.18659827652832983,0.0021666756107516782,0.0,0.027922651562722334,0.5654398997879649,0.585930021670075,9.71445146547012e-17,0.6328570519723651,0.5522601171660174,0.35881455021746445,0.825816147558867,0.07251619711520951,0.9978288606889228,0.2679381024821499,0.494613499298044,0.38060806544211623,0.8419904791302404,0.0,6.661338147750939e-16,0.9274838028847894,0.08035317986760701
0.7403529843982848,0.17044685525259218,0.0021753043366157243,0.0,0.012441259597515464,0.6010038851451548,0.587842664843494,0.0,0.5215158070620843,0.4973381359681322,0.37288430442649084,0.8244808478544572,0.07251619711522422,0.9978202785087901,0.28979891572656946,0.569956695945887,0.37751520250190307,0.8519398197649997,0.0,6.661338147750939e-16,0.9274838028847894,0.08035317986760701
0.7130891976806721,0.1582534089569303,0.00225486908350081,0.0,0.018096137850660388,0.6199960780472343,0.590587904362832,9.71445146547012e-17,0.5493700382288648,0.3495536490666858,0.3627039883077676,0.8166969459644111,0.07251619711520951,0.9977405735559947,0.30546985458898135,0.5812166258301907,0.370604709104871,0.8577222559221518,0.0,4.440892098500626e-16,0.9274838028847876,0.08035317986760701
0.6868694955647847,0.14889249066634114,0.002382548975947252,0.0,0.03595643118290959,0.6369752801044616,0.5923709157973668,9.71445146547012e-17,0.6466787599239178,0.2752803543181238,0.32909285461877047,0.8123244959292482,0.07251619711520951,0.997612609501079,0.2787074987955602,0.5520548730887747,0.34301302973031156,0.855102449540242,0.0,4.440892098500626e-16,0.9274838028847876,0.08035317986760701
0.6604562040068864,0.14165555476653258,0.0025248028286828372,0.0,0.05329011553750451,0.6678093608304722,0.5912359270217417,0.0,0.691535821451357,0.445638994250835,0.2835932176286151,0.8224373866826964,0.07251619711520951,0.9974700089053762,0.2037964474803431,0.5238791974104373,0.29505212185137886,0.8451512773721426,0.0,4.440892098500626e-16,0.9274838028847867,0.08035317986760701
0.6370240512392793,0.1356596030004138,0.0026229726849411605,0.0,0.062041950047529715,0.6998883450697398,0.5884429099250803,9.71445146547012e-17,0.6624306177643975,0.6125183271308436,0.2680042941579981,0.8346018278975773,0.07251619711520951,0.997371593643091,0.2677179605624769,0.5341469700395187,0.32722336994697443,0.8579620331331395,0.0,4.440892098500626e-16,0.9274838028847876,0.08035317986760701
0.6197367013955555,0.13101777652277447,0.0026481913260042456,0.0,0.06286790319603675,0.7206864140072012,0.5860449015355977,0.0,0.6048701951250526,0.5862006856956329,0.2965433906307226,0.8385185025215822,0.07251619711520951,0.9973463161426678,0.52391305177464,0.5825465170238004,0.46575882367415566,0.9014664051210337,0.0,4.440892098500626e-16,0.9274838028847876,0.08035317986760701
0.6060146467929648,0.1304534770949417,0.0026179908426495757,0.0,0.06954936499710912,0.7431838820092219,0.5843158367053856,0.0,0.6039513565815374,0.537375488876092,0.3354629897791667,0.8462350944281543,0.07251619711520951,0.9973765856865456,0.7906028619211902,0.6265111688341172,0.6108037336053957,0.9464211031589551,0.0,4.440892098500626e-16,0.9274838028847876,0.08035317986760701
0.5951931329521598,0.14026776503386928,0.0025139279821361216,0.0,0.10499171934303841,0.7852782098649983,0.5838443712858872,0.0,0.7745694239276671,0.6607060015896105,0.35191901781183954,0.8761995948533654,0.07251619711520951,0.9974808639590974,0.8473924118942815,0.6174871742669339,0.6420775154234875,0.9576616257460309,0.0,4.440892098500626e-16,0.9274838028847867,0.08035317986760701
0.5896850096925994,0.1474671287780085,0.002449504936346658,0.0,0.13966046611743305,0.8103851380059115,0.5843356864527322,9.71445146547012e-17,0.8432196473599212,0.7140548592377022,0.3525038815969708,0.8964079517305219,0.07251619711520951,0.99754541659618,0.7789035130879363,0.6095474327642769,0.6033057922513274,0.9489715575257014,0.0,4.440892098500626e-16,0.9274838028847876,0.08035317986760701
0.5819283622464693,0.1484310453805373,0.002441232081712985,0.0,0.17424648881669125,0.8204799381635177,0.5850855950564443,9.71445146547012e-17,0.7228727981801041,0.5832658180404495,0.3618846719941954,0.9015834071278279,0.07251619711520951,0.9975537051720939,0.7264408524932122,0.6401359319504785,0.5710785757523498,0.944725048970656,0.0,6.661338147750939e-16,0.9274838028847894,0.08035317986760701
0.5723969338170571,0.14552477949699472,0.0024960353433505222,0.0,0.19334365163435466,0.8199287138634441,0.5857731459491307,9.71445146547012e-17,0.616574234931464,0.4732925662166529,0.3731401098697311,0.893663048174524,0.07251619711520951,0.9974987909103142,0.6494958548942051,0.6456516136899779,0.5313584705895718,0.9351335176729618,0.0,4.440892098500626e-16,0.9274838028847876,0.08035317986760701
0.5540984232787836,0.14172313203657638,0.002657453494402051,0.0,0.1974897148526909,0.8197492674966137,0.5866665705613188,9.71445146547012e-17,0.7224455902354691,0.5894777394854345,0.3780679696805664,0.875461697185612,0.07251619711520951,0.9973370456993725,0.40455276825615627,0.540137647603796,0.4159996476842478,0.8951071933558907,0.0,4.440892098500626e-16,0.9274838028847876,0.08035317986760701
0.5365337133543309,0.14009101069520447,0.002831213692731205,0.0,0.19632931024581923,0.8263224715755686,0.5872795156524844,9.71445146547012e-17,0.8223076584597191,0.7270109706691028,0.36182001224818944,0.8676074532280706,0.07251619711520951,0.9971629262266887,0.177232975396441,0.4285748567196954,0.30217213916488905,0.856911878570596,0.0,4.440892098500626e-16,0.9274838028847867,0.08035317986760701
0.521367110634736,0.139990291472196,0.002982332964147183,0.0,0.20470232561124452,0.838810665704657,0.5876122802010094,0.0,0.7578116538082396,0.7079760669169344,0.32972889962529317,0.872470090690463,0.07251619711520951,0.9970114881720845,0.060672736348701406,0.3805185084082865,0.23153897962126013,0.8384501966098643,0.0,4.440892098500626e-16,0.9274838028847876,0.08035317986760701
0.5096020026256693,0.14077253568801162,0.003090568402433047,0.0,0.23036248140915463,0.8512269802546562,0.5872256985548981,0.0,0.6565302636818021,0.538655326784993,0.29926337646905976,0.8764703297595018,0.07251619711520951,0.9969030404444424,0.17328392324565733,0.4137565598763011,0.27900779087348226,0.8594590149134484,0.0,6.661338147750939e-16,0.9274838028847894,0.08035317986760701
0.5076847764765571,0.1420090823654263,0.003085515980566722,0.0,0.2752216174222285,0.8545058714738489,0.5856497677723317,9.71445146547012e-17,0.685459273654136,0.31430828983964004,0.30053217353678,0.8638395908341412,0.07251619711522422,0.9969081564792909,0.5948172969042762,0.5319129546785497,0.5024703291849013,0.9323819826591535,0.0,4.440892098500626e-16,0.9274838028847876,0.08035317986760701
0.5113337191759384,0.1440112288726907,0.00303088593177947,0.0,0.3177679343412161,0.8607791405290072,0.5842287385321319,0.0,0.6827320177938642,0.29581796858829523,0.3154425089017721,0.8512155815506395,0.07251619711520951,0.9969629449658975,0.8081443695294173,0.589739903970802,0.6121689295601733,0.9699182423703681,0.0,4.440892098500626e-16,0.9274838028847876,0.08035317986760701
0.5178046379752563,0.1489542072190615,0.0029575506475373325,0.0,0.3665546692458506,0.8853585093537009,0.5833743942220003,9.71445146547012e-17,0.49645024996050585,0.6384951448821004,0.33109846091302947,0.8483340923590914,0.07251619711520951,0.9970364487507596,0.5311681822449241,0.5144889317987165,0.44083842142188345,0.925788517459396,0.0,4.440892098500626e-16,0.9274838028847876,0.08035317986760701
0.5222467848528498,0.15638377286317984,0.0028932874476846893,0.0,0.40242996237986167,0.9075662815020409,0.5835260655489447,9.71445146547012e-17,0.3816735734124944,0.8884593034832989,0.336345968313539,0.8536779535737873,0.07251619711522422,0.9971008252061134,0.2621655715266158,0.4609301648918134,0.27522899516374544,0.8835163471590084,0.0,4.440892098500626e-16,0.9274838028847876,0.08035317986760701
0.5233127480164543,0.16554446190778216,0.002821197855818358,0.0,0.4264665356601516,0.9132960111881121,0.5841421264438302,9.71445146547012e-17,0.5097922366563421,0.7322578347173176,0.33255518467526596,0.8584812484007305,0.07251619711520951,0.9971730308839787,0.4486952685680663,0.5572483716653238,0.370226672418033,0.9183860616541111,0.0,4.440892098500626e-16,0.9274838028847876,0.08035317986760701
0.5231625557730313,0.17388908437807982,0.002670051094597059,0.0,0.43794254800072707,0.9110289862822918,0.584315973506946,9.71445146547012e-17,0.674344317163692,0.4701967608250937,0.32646759762865357,0.8604384029823375,0.07251619711520951,0.9973244687528798,0.7816893109257474,0.6915257947853419,0.5563425052136317,0.9776990084024844,0.0,4.440892098500626e-16,0.9274838028847876,0.08035317986760701
0.5238179476498503,0.1779070326455745,0.0024131583088017328,0.0,0.435609139844557,0.9104403674448573,0.5834287771827269,9.71445146547012e-17,0.6460565808261267,0.46299661380423546,0.32600097921590465,0.8598074653073997,0.07251619711522422,0.9975819049909523,0.8552751684832334,0.7184148234437444,0.6077730051740549,0.9918875241586269,0.0,4.440892098500626e-16,0.9274838028847867,0.08035317986760701
0.5241939487555103,0.18100033110162927,0.0021259840979281908,0.0,0.4360284801459133,0.9087201823209187,0.5827923080697966,9.71445146547012e-17,0.5733947557526937,0.5872572982565595,0.3344419495239498,0.8662167384373358,0.07251619711520951,0.997869699738991,0.7694087524716551,0.6760343338121899,0.5689699928549281,0.9782439938271219,0.0,4.440892098500626e-16,0.9274838028847876,0.08035317986760701
0.5231951393352259,0.18609859580337984,0.0019335265534586865,0.0,0.4528882255799852,0.902171118734025,0.5837717334309142,9.71445146547012e-17,0.6342625396587229,0.6505965077222455,0.35050216910681137,0.8852454025781809,0.07251619711520951,0.9980625670549154,0.7079811757603363,0.6358369398222656,0.5321731176411912,0.9682787824279977,0.0,4.440892098500626e-16,0.9274838028847876,0.08035317986760701
0.5231863521927003,0.19232583982959617,0.0017855249957190455,0.0,0.4754703034972165,0.8941523946472378,0.5856663142700888,9.71445146547012e-17,0.7337101576538686,0.7071348190060233,0.3648319694645256,0.9031298307465025,0.07251619711520951,0.9982108559886779,0.6987199674084756,0.6193825778497164,0.5253675917313796,0.9674341484815088,0.0,4.440892098500626e-16,0.9274838028847876,0.08035317986760701
0.5267416420872777,0.19782929387791137,0.0016335818314842099,0.0,0.48766266981691253,0.889713702194949,0.5873665306979756,9.71445146547012e-17,0.7327825545595233,0.8112711703085953,0.3658316182068165,0.903527898516165,0.07251619711520951,0.9983630579937056,0.7318826748052327,0.6342805727320346,0.5557280405922516,0.9745473730556604,0.0,6.661338147750939e-16,0.9274838028847894,0.08035317986760701
0.5318437842467647,0.20457290559091046,0.0014666870890550632,0.0,0.49058116636281385,0.8880337262695395,0.5888024335725026,9.71445146547012e-17,0.6630321366012681,0.7904018793093732,0.3562737252542592,0.8980861045351407,0.07251619711520951,0.9985302469289031,0.7523791435668326,0.6456160011360161,0.57648194838099,0.9794752571938954,0.0,6.661338147750939e-16,0.9274838028847894,0.08035317986760701
0.5360706809084408,0.2156733438741849,0.001285589036832513,0.0,0.4891779740653789,0.8862611865008125,0.5901212610695761,9.71445146547012e-17,0.5997042756078725,0.5153864753888475,0.34198587710794337,0.8998017632593962,0.07251619711520951,0.998711707108625,0.719848856511943,0.6227515656865279,0.5500597408129924,0.9746101837383447,0.0,4.440892098500626e-16,0.9274838028847876,0.08035317986760701
0.5384358988018636,0.2313119744588792,0.0011524324772995698,0.0,0.48393224405045454,0.8813428766028577,0.5907208320779933,9.71445146547012e-17,0.6171302187657148,0.2445018376566596,0.3287052829337647,0.9006207108623938,0.07251619711520951,0.9988451450300192,0.6830974536345611,0.5893177649165224,0.5176367995195799,0.9684066059845273,0.0,4.440892098500626e-16,0.9274838028847876,0.08035317986760701
